Q,Q1,Q2,Q3,Q4,acc_sum,block,block_c,correct,correct_response,datetime,endtime,project,response,response_time,row_sel,session_number,squiggle1,squiggle1x,squiggle1y,squiggle2,squiggle2x,squiggle2y,squiggle3,squiggle3x,squiggle3y,squiggle4,squiggle4x,squiggle4y,start_end,starttime,subject_id,target_congruent,task,task_vers,testsquiggle,testsquigglex,testsquiggley,time_practice_delay,time_practice_fixation,time_practice_stimuli,time_practice_study,time_test_delay,time_test_fixation,time_test_stimuli,time_test_study,trial
1,1,0,0,0,1,prac,1,1,z,Thu Aug 29 2024 17:15:38 GMT-0500 (Central Daylight Time),196719.19999998808,O,z,1753,1,1,66.bmp,-120,-120,67.bmp,120,-120,68.bmp,-120,120,69.bmp,120,120,10573.300000011921,186145.89999997616,7012,yes,SM,C,66.bmp,-120,-120,182125,176102,184142,178110,,,,,1
3,0,0,1,0,1,prac,1,0,m,Thu Aug 29 2024 17:15:38 GMT-0500 (Central Daylight Time),207565.29999995232,O,None,2015,2,1,70.bmp,-120,-120,71.bmp,120,-120,72.bmp,-120,120,73.bmp,120,120,10830.099999964237,196735.19999998808,7012,no,SM,C,73.bmp,-120,120,192722,186691,194739,188707,,,,,2
4,0,0,0,1,2,prac,1,1,m,Thu Aug 29 2024 17:15:38 GMT-0500 (Central Daylight Time),217878.79999995232,O,m,1487,3,1,74.bmp,-120,-120,75.bmp,120,-120,76.bmp,-120,120,77.bmp,120,120,10300.099999964237,207578.69999998808,7012,no,SM,C,74.bmp,120,120,203552,197534,205568,199536,,,,,3
2,0,1,0,0,3,prac,1,1,z,Thu Aug 29 2024 17:15:38 GMT-0500 (Central Daylight Time),227925.39999997616,O,z,1221,4,1,78.bmp,-120,-120,79.bmp,120,-120,80.bmp,-120,120,81.bmp,120,120,10033.899999976158,217891.5,7012,yes,SM,C,79.bmp,120,-120,213865,207847,215882,209850,,,,,4
3,0,0,1,0,4,prac,1,1,z,Thu Aug 29 2024 17:15:38 GMT-0500 (Central Daylight Time),237905.19999998808,O,z,1150,5,1,82.bmp,-120,-120,83.bmp,120,-120,84.bmp,-120,120,85.bmp,120,120,9967.199999988079,227938.0,7012,yes,SM,C,84.bmp,-120,120,223912,217894,225928,219897,,,,,5
1,1,0,0,0,5,prac,1,1,m,Thu Aug 29 2024 17:15:38 GMT-0500 (Central Daylight Time),248185.19999998808,O,m,1458,6,1,86.bmp,-120,-120,87.bmp,120,-120,88.bmp,-120,120,89.bmp,120,120,10267.800000011921,237917.39999997616,7012,no,SM,C,89.bmp,-120,-120,233892,227873,235908,229877,,,,,6
2,0,1,0,0,6,prac,1,1,m,Thu Aug 29 2024 17:15:38 GMT-0500 (Central Daylight Time),258448.59999996424,O,m,1443,7,1,90.bmp,-120,-120,91.bmp,120,-120,92.bmp,-120,120,93.bmp,120,120,10249.5,248199.09999996424,7012,no,SM,C,90.bmp,120,-120,244172,238155,246188,240157,,,,,7
4,0,0,0,1,6,prac,1,0,z,Thu Aug 29 2024 17:15:38 GMT-0500 (Central Daylight Time),269278.09999996424,O,None,2016,8,1,94.bmp,-120,-120,95.bmp,120,-120,96.bmp,-120,120,97.bmp,120,120,10816.599999964237,258461.5,7012,yes,SM,C,97.bmp,120,120,254435,248417,256451,250420,,,,,8
4,0,0,0,1,1,test,1,1,m,Thu Aug 29 2024 17:15:38 GMT-0500 (Central Daylight Time),301301.0,O,m,1472,1,1,98.bmp,-120,-120,99.bmp,120,-120,100.bmp,-120,120,93.bmp,120,120,9519.700000047684,291781.2999999523,7012,yes,SM,C,100.bmp,120,120,254435,248417,256451,250420,287757.0,281737.0,289774.0,283742.0,1
2,0,1,0,0,1,test,1,0,m,Thu Aug 29 2024 17:15:38 GMT-0500 (Central Daylight Time),311364.39999997616,O,None,2015,2,1,51.bmp,-120,-120,52.bmp,120,-120,53.bmp,-120,120,54.bmp,120,120,10049.800000011921,301314.59999996424,7012,yes,SM,C,53.bmp,120,-120,254435,248417,256451,250420,297287.0,291270.0,299304.0,293273.0,2
1,1,0,0,0,2,test,1,1,z,Thu Aug 29 2024 17:15:38 GMT-0500 (Central Daylight Time),320527.7999999523,O,z,1104,3,1,55.bmp,-120,-120,56.bmp,120,-120,57.bmp,-120,120,58.bmp,120,120,9151.0,311376.7999999523,7012,yes,SM,C,55.bmp,-120,-120,254435,248417,256451,250420,307351.0,301333.0,309366.0,303336.0,3
3,0,0,1,0,3,test,1,1,m,Thu Aug 29 2024 17:15:38 GMT-0500 (Central Daylight Time),329891.2999999523,O,m,1299,4,1,59.bmp,-120,-120,60.bmp,120,-120,61.bmp,-120,120,62.bmp,120,120,9351.399999976158,320539.89999997616,7012,yes,SM,C,59.bmp,-120,120,254435,248417,256451,250420,316514.0,310496.0,318531.0,312500.0,4
2,0,1,0,0,4,test,1,1,z,Thu Aug 29 2024 17:15:38 GMT-0500 (Central Daylight Time),339388.09999996424,O,z,1440,5,1,63.bmp,-120,-120,64.bmp,120,-120,65.bmp,-120,120,66.bmp,120,120,9483.300000011921,329904.7999999523,7012,yes,SM,C,64.bmp,120,-120,254435,248417,256451,250420,325878.0,319860.0,327894.0,321863.0,5
3,0,0,1,0,4,test,1,0,z,Thu Aug 29 2024 17:15:38 GMT-0500 (Central Daylight Time),349451.7999999523,O,None,2016,6,1,67.bmp,-120,-120,68.bmp,120,-120,69.bmp,-120,120,70.bmp,120,120,10052.099999964237,339399.6999999881,7012,yes,SM,C,69.bmp,-120,120,254435,248417,256451,250420,335375.0,329355.0,337391.0,331360.0,6
4,0,0,0,1,5,test,1,1,z,Thu Aug 29 2024 17:15:38 GMT-0500 (Central Daylight Time),358482.0,O,z,976,7,1,71.bmp,-120,-120,72.bmp,120,-120,73.bmp,-120,120,74.bmp,120,120,9018.900000035763,349463.09999996424,7012,yes,SM,C,74.bmp,120,120,254435,248417,256451,250420,345438.0,339419.0,347454.0,341423.0,7
2,0,1,0,0,6,test,1,1,m,Thu Aug 29 2024 17:15:38 GMT-0500 (Central Daylight Time),368428.39999997616,O,m,1898,8,1,75.bmp,-120,-120,76.bmp,120,-120,77.bmp,-120,120,78.bmp,120,120,9935.0,358493.39999997616,7012,yes,SM,C,75.bmp,120,-120,254435,248417,256451,250420,354469.0,348449.0,356485.0,350454.0,8
3,0,0,1,0,6,test,1,0,m,Thu Aug 29 2024 17:15:38 GMT-0500 (Central Daylight Time),378491.6999999881,O,None,2015,9,1,79.bmp,-120,-120,80.bmp,120,-120,81.bmp,-120,120,82.bmp,120,120,10050.699999988079,368441.0,7012,yes,SM,C,80.bmp,-120,120,254435,248417,256451,250420,364415.0,358397.0,366432.0,360400.0,9
4,0,0,0,1,7,test,1,1,z,Thu Aug 29 2024 17:15:38 GMT-0500 (Central Daylight Time),387855.59999996424,O,z,1303,10,1,87.bmp,-120,-120,88.bmp,120,-120,89.bmp,-120,120,90.bmp,120,120,9356.599999964237,378499.0,7012,yes,SM,C,90.bmp,120,120,254435,248417,256451,250420,374479.0,368454.0,376495.0,370464.0,10
3,0,0,1,0,8,test,1,1,z,Thu Aug 29 2024 17:15:38 GMT-0500 (Central Daylight Time),397685.09999996424,O,z,1770,11,1,83.bmp,-120,-120,84.bmp,120,-120,85.bmp,-120,120,86.bmp,120,120,9817.099999964237,387868.0,7012,yes,SM,C,85.bmp,-120,120,254435,248417,256451,250420,383842.0,377824.0,385859.0,379827.0,11
2,0,1,0,0,9,test,1,1,m,Thu Aug 29 2024 17:15:38 GMT-0500 (Central Daylight Time),407015.89999997616,O,m,1277,12,1,91.bmp,-120,-120,92.bmp,120,-120,93.bmp,-120,120,94.bmp,120,120,9326.899999976158,397689.0,7012,yes,SM,C,91.bmp,120,-120,254435,248417,256451,250420,393672.0,387644.0,395689.0,389658.0,12
3,0,0,1,0,10,test,1,1,m,Thu Aug 29 2024 17:15:38 GMT-0500 (Central Daylight Time),416646.0,O,m,1571,13,1,95.bmp,-120,-120,96.bmp,120,-120,97.bmp,-120,120,98.bmp,120,120,9617.700000047684,407028.2999999523,7012,yes,SM,C,96.bmp,-120,120,254435,248417,256451,250420,403002.0,396984.0,405019.0,398988.0,13
1,1,0,0,0,11,test,1,1,z,Thu Aug 29 2024 17:15:38 GMT-0500 (Central Daylight Time),425526.39999997616,O,z,829,14,1,99.bmp,-120,-120,100.bmp,120,-120,54.bmp,-120,120,51.bmp,120,120,8868.800000011921,416657.59999996424,7012,yes,SM,C,99.bmp,-120,-120,254435,248417,256451,250420,412633.0,406613.0,414649.0,408618.0,14
4,0,0,0,1,12,test,1,1,m,Thu Aug 29 2024 17:15:38 GMT-0500 (Central Daylight Time),435506.39999997616,O,m,1925,15,1,60.bmp,-120,-120,61.bmp,120,-120,62.bmp,-120,120,63.bmp,120,120,9968.199999988079,425538.1999999881,7012,yes,SM,C,61.bmp,120,120,254435,248417,256451,250420,421513.0,415494.0,423530.0,417498.0,15
1,1,0,0,0,13,test,1,1,m,Thu Aug 29 2024 17:15:38 GMT-0500 (Central Daylight Time),445119.89999997616,O,m,1552,16,1,52.bmp,-120,-120,53.bmp,120,-120,54.bmp,-120,120,55.bmp,120,120,9602.100000023842,435517.7999999523,7012,yes,SM,C,55.bmp,-120,-120,254435,248417,256451,250420,431493.0,425473.0,433510.0,427478.0,16
3,0,0,1,0,14,test,1,1,m,Thu Aug 29 2024 17:15:38 GMT-0500 (Central Daylight Time),454500.09999996424,O,m,1332,17,1,72.bmp,-120,-120,73.bmp,120,-120,74.bmp,-120,120,75.bmp,120,120,9368.800000011921,445131.2999999523,7012,yes,SM,C,72.bmp,-120,120,254435,248417,256451,250420,441106.0,435087.0,443123.0,437092.0,17
1,1,0,0,0,15,test,1,1,z,Thu Aug 29 2024 17:15:38 GMT-0500 (Central Daylight Time),463880.39999997616,O,z,1319,18,1,56.bmp,-120,-120,57.bmp,120,-120,58.bmp,-120,120,59.bmp,120,120,9366.899999976158,454513.5,7012,yes,SM,C,56.bmp,-120,-120,254435,248417,256451,250420,450487.0,444469.0,452503.0,446472.0,18
2,0,1,0,0,15,test,1,0,z,Thu Aug 29 2024 17:15:38 GMT-0500 (Central Daylight Time),473943.6999999881,O,None,2015,19,1,76.bmp,-120,-120,77.bmp,120,-120,78.bmp,-120,120,79.bmp,120,120,10050.900000035763,463892.7999999523,7012,yes,SM,C,77.bmp,120,-120,254435,248417,256451,250420,459867.0,453848.0,461884.0,455852.0,19
3,0,0,1,0,16,test,1,1,z,Thu Aug 29 2024 17:15:38 GMT-0500 (Central Daylight Time),483657.2999999523,O,z,1651,20,1,80.bmp,-120,-120,81.bmp,120,-120,82.bmp,-120,120,83.bmp,120,120,9700.099999964237,473957.1999999881,7012,yes,SM,C,82.bmp,-120,120,254435,248417,256451,250420,469930.0,463913.0,471947.0,465915.0,20
1,1,0,0,0,16,test,1,0,m,Thu Aug 29 2024 17:15:38 GMT-0500 (Central Daylight Time),492870.7999999523,O,z,1162,21,1,64.bmp,-120,-120,65.bmp,120,-120,66.bmp,-120,120,67.bmp,120,120,9201.799999952316,483669.0,7012,yes,SM,C,66.bmp,-120,-120,254435,248417,256451,250420,479644.0,473625.0,481660.0,475629.0,21
4,0,0,0,1,16,test,1,0,z,Thu Aug 29 2024 17:15:38 GMT-0500 (Central Daylight Time),502934.2999999523,O,None,2015,22,1,68.bmp,-120,-120,69.bmp,120,-120,70.bmp,-120,120,71.bmp,120,120,10052.299999952316,492882.0,7012,yes,SM,C,71.bmp,120,120,254435,248417,256451,250420,488857.0,482838.0,490874.0,484843.0,22
1,1,0,0,0,17,test,1,1,m,Thu Aug 29 2024 17:15:38 GMT-0500 (Central Daylight Time),512331.0,O,m,1340,23,1,84.bmp,-120,-120,85.bmp,120,-120,86.bmp,-120,120,87.bmp,120,120,9385.700000047684,502945.2999999523,7012,yes,SM,C,87.bmp,-120,-120,254435,248417,256451,250420,498921.0,492901.0,500938.0,494906.0,23
2,0,1,0,0,18,test,1,1,z,Thu Aug 29 2024 17:15:38 GMT-0500 (Central Daylight Time),521428.09999996424,O,z,1040,24,1,92.bmp,-120,-120,93.bmp,120,-120,94.bmp,-120,120,95.bmp,120,120,9085.899999976158,512342.1999999881,7012,yes,SM,C,93.bmp,120,-120,254435,248417,256451,250420,508318.0,502298.0,510334.0,504303.0,24
4,0,0,0,1,19,test,1,1,m,Thu Aug 29 2024 17:15:38 GMT-0500 (Central Daylight Time),530808.2999999523,O,m,1327,25,1,96.bmp,-120,-120,97.bmp,120,-120,98.bmp,-120,120,99.bmp,120,120,9369.199999988079,521439.09999996424,7012,yes,SM,C,98.bmp,120,120,254435,248417,256451,250420,517415.0,511395.0,519431.0,513400.0,25
1,1,0,0,0,20,test,1,1,z,Thu Aug 29 2024 17:15:38 GMT-0500 (Central Daylight Time),540355.1999999881,O,z,1491,26,1,88.bmp,-120,-120,89.bmp,120,-120,90.bmp,-120,120,91.bmp,120,120,9533.5,530821.6999999881,7012,yes,SM,C,88.bmp,-120,-120,254435,248417,256451,250420,526795.0,520777.0,528811.0,522780.0,26
4,0,0,0,1,20,test,1,0,z,Thu Aug 29 2024 17:15:38 GMT-0500 (Central Daylight Time),550285.1999999881,O,m,1872,27,1,100.bmp,-120,-120,61.bmp,120,-120,51.bmp,-120,120,52.bmp,120,120,9915.800000011921,540369.3999999762,7012,yes,SM,C,52.bmp,120,120,254435,248417,256451,250420,536342.0,530325.0,538358.0,532327.0,27
3,0,0,1,0,21,test,1,1,m,Thu Aug 29 2024 17:15:38 GMT-0500 (Central Daylight Time),560048.5,O,m,1709,28,1,53.bmp,-120,-120,54.bmp,120,-120,55.bmp,-120,120,56.bmp,120,120,9751.600000023842,550296.8999999762,7012,yes,SM,C,53.bmp,-120,120,254435,248417,256451,250420,546272.0,540253.0,548289.0,542257.0,28
2,0,1,0,0,22,test,1,1,z,Thu Aug 29 2024 17:15:38 GMT-0500 (Central Daylight Time),569345.6999999881,O,z,1234,29,1,57.bmp,-120,-120,58.bmp,120,-120,59.bmp,-120,120,60.bmp,120,120,9285.300000011921,560060.3999999762,7012,yes,SM,C,58.bmp,120,-120,254435,248417,256451,250420,556036.0,550016.0,558052.0,552021.0,29
3,0,0,1,0,23,test,1,1,z,Thu Aug 29 2024 17:15:38 GMT-0500 (Central Daylight Time),579192.1999999881,O,z,1785,30,1,61.bmp,-120,-120,62.bmp,120,-120,63.bmp,-120,120,64.bmp,120,120,9835.300000011921,569356.8999999762,7012,yes,SM,C,63.bmp,-120,120,254435,248417,256451,250420,565332.0,559313.0,567349.0,561317.0,30
1,1,0,0,0,24,test,1,1,z,Thu Aug 29 2024 17:15:38 GMT-0500 (Central Daylight Time),588789.0999999642,O,z,1539,31,1,65.bmp,-120,-120,66.bmp,120,-120,67.bmp,-120,120,68.bmp,120,120,9584.099999964237,579205.0,7012,yes,SM,C,65.bmp,-120,-120,254435,248417,256451,250420,575179.0,569161.0,577195.0,571164.0,31
2,0,1,0,0,25,test,1,1,m,Thu Aug 29 2024 17:15:38 GMT-0500 (Central Daylight Time),598069.5,O,m,1230,32,1,69.bmp,-120,-120,70.bmp,120,-120,71.bmp,-120,120,72.bmp,120,120,9269.400000035763,588800.0999999642,7012,yes,SM,C,69.bmp,120,-120,254435,248417,256451,250420,584776.0,578756.0,586792.0,580761.0,32
4,0,0,0,1,25,test,1,0,z,Thu Aug 29 2024 17:15:38 GMT-0500 (Central Daylight Time),607482.8999999762,O,m,1350,33,1,81.bmp,-120,-120,82.bmp,120,-120,83.bmp,-120,120,84.bmp,120,120,9402.399999976158,598080.5,7012,yes,SM,C,84.bmp,120,120,254435,248417,256451,250420,594056.0,588036.0,596072.0,590041.0,33
2,0,1,0,0,25,test,1,0,z,Thu Aug 29 2024 17:15:38 GMT-0500 (Central Daylight Time),617546.3999999762,O,None,2015,34,1,73.bmp,-120,-120,74.bmp,120,-120,75.bmp,-120,120,76.bmp,120,120,10051.199999988079,607495.1999999881,7012,yes,SM,C,74.bmp,120,-120,254435,248417,256451,250420,603470.0,597451.0,605486.0,599455.0,34
4,0,0,0,1,25,test,1,0,m,Thu Aug 29 2024 17:15:38 GMT-0500 (Central Daylight Time),626926.5,O,z,1321,35,1,77.bmp,-120,-120,78.bmp,120,-120,79.bmp,-120,120,80.bmp,120,120,9367.0,617559.5,7012,yes,SM,C,79.bmp,120,120,254435,248417,256451,250420,613533.0,607515.0,615549.0,609518.0,35
3,0,0,1,0,26,test,1,1,m,Thu Aug 29 2024 17:15:38 GMT-0500 (Central Daylight Time),636423.5,O,m,1437,36,1,85.bmp,-120,-120,86.bmp,120,-120,87.bmp,-120,120,88.bmp,120,120,9485.800000011921,626937.6999999881,7012,yes,SM,C,85.bmp,-120,120,254435,248417,256451,250420,622913.0,616893.0,624929.0,618898.0,36
1,1,0,0,0,26,test,1,0,m,Thu Aug 29 2024 17:15:38 GMT-0500 (Central Daylight Time),646486.1999999881,O,None,2015,37,1,89.bmp,-120,-120,90.bmp,120,-120,91.bmp,-120,120,92.bmp,120,120,10051.300000011921,636434.8999999762,7012,yes,SM,C,90.bmp,-120,-120,254435,248417,256451,250420,632410.0,626391.0,634426.0,628395.0,37
2,0,1,0,0,27,test,1,1,m,Thu Aug 29 2024 17:15:38 GMT-0500 (Central Daylight Time),655650.2999999523,O,m,1100,38,1,93.bmp,-120,-120,94.bmp,120,-120,95.bmp,-120,120,96.bmp,120,120,9160.299999952316,646490.0,7012,yes,SM,C,95.bmp,120,-120,254435,248417,256451,250420,642473.0,636445.0,644490.0,638458.0,38
4,0,0,0,1,28,test,1,1,z,Thu Aug 29 2024 17:15:38 GMT-0500 (Central Daylight Time),664930.5999999642,O,z,1217,39,1,97.bmp,-120,-120,98.bmp,120,-120,99.bmp,-120,120,100.bmp,120,120,9269.0,655661.5999999642,7012,yes,SM,C,100.bmp,120,120,254435,248417,256451,250420,651637.0,645617.0,653653.0,647622.0,39
3,0,0,1,0,28,test,1,0,m,Thu Aug 29 2024 17:15:38 GMT-0500 (Central Daylight Time),674127.5999999642,O,z,1143,40,1,54.bmp,-120,-120,55.bmp,120,-120,56.bmp,-120,120,57.bmp,120,120,9184.800000011921,664942.7999999523,7012,yes,SM,C,55.bmp,-120,120,254435,248417,256451,250420,660918.0,654898.0,662934.0,656903.0,40
1,1,0,0,0,29,test,1,1,z,Thu Aug 29 2024 17:15:38 GMT-0500 (Central Daylight Time),683157.8999999762,O,z,979,41,1,58.bmp,-120,-120,59.bmp,120,-120,60.bmp,-120,120,61.bmp,120,120,9017.699999988079,674140.1999999881,7012,yes,SM,C,58.bmp,-120,-120,254435,248417,256451,250420,670114.0,664096.0,672131.0,666099.0,41
4,0,0,0,1,30,test,1,1,z,Thu Aug 29 2024 17:15:38 GMT-0500 (Central Daylight Time),692254.8999999762,O,z,1045,42,1,62.bmp,-120,-120,63.bmp,120,-120,64.bmp,-120,120,65.bmp,120,120,9084.699999988079,683170.1999999881,7012,yes,SM,C,65.bmp,120,120,254435,248417,256451,250420,679145.0,673126.0,681161.0,675130.0,42
1,1,0,0,0,31,test,1,1,z,Thu Aug 29 2024 17:15:38 GMT-0500 (Central Daylight Time),701435.1999999881,O,z,1124,43,1,66.bmp,-120,-120,67.bmp,120,-120,68.bmp,-120,120,69.bmp,120,120,9169.100000023842,692266.0999999642,7012,yes,SM,C,66.bmp,-120,-120,254435,248417,256451,250420,688242.0,682222.0,690258.0,684226.0,43
4,0,0,0,1,31,test,1,0,m,Thu Aug 29 2024 17:15:38 GMT-0500 (Central Daylight Time),711215.3999999762,O,z,1720,44,1,54.bmp,-120,-120,51.bmp,120,-120,52.bmp,-120,120,53.bmp,120,120,9769.199999988079,701446.1999999881,7012,yes,SM,C,54.bmp,120,120,254435,248417,256451,250420,697422.0,691402.0,699438.0,693407.0,44
1,1,0,0,0,31,test,1,0,m,Thu Aug 29 2024 17:15:38 GMT-0500 (Central Daylight Time),721228.6999999881,O,z,1956,45,1,78.bmp,-120,-120,79.bmp,120,-120,80.bmp,-120,120,81.bmp,120,120,10002.800000011921,711225.8999999762,7012,yes,SM,C,81.bmp,-120,-120,254435,248417,256451,250420,707202.0,701181.0,709218.0,703187.0,45
1,1,0,0,0,32,test,1,1,m,Thu Aug 29 2024 17:15:38 GMT-0500 (Central Daylight Time),730509.0,O,m,1230,46,1,70.bmp,-120,-120,71.bmp,120,-120,72.bmp,-120,120,73.bmp,120,120,9269.5,721239.5,7012,yes,SM,C,71.bmp,-120,-120,254435,248417,256451,250420,717215.0,711195.0,719232.0,713200.0,46
3,0,0,1,0,33,test,1,1,z,Thu Aug 29 2024 17:15:38 GMT-0500 (Central Daylight Time),739622.5999999642,O,z,1054,47,1,74.bmp,-120,-120,75.bmp,120,-120,76.bmp,-120,120,77.bmp,120,120,9100.899999976158,730521.6999999881,7012,yes,SM,C,76.bmp,-120,120,254435,248417,256451,250420,726496.0,720477.0,728512.0,722481.0,47
3,0,0,1,0,34,test,1,1,z,Thu Aug 29 2024 17:15:38 GMT-0500 (Central Daylight Time),748986.0999999642,O,z,1308,48,1,90.bmp,-120,-120,91.bmp,120,-120,92.bmp,-120,120,93.bmp,120,120,9352.699999988079,739633.3999999762,7012,yes,SM,C,92.bmp,-120,120,254435,248417,256451,250420,735609.0,729589.0,737626.0,731594.0,48
2,0,1,0,0,35,test,1,1,z,Thu Aug 29 2024 17:15:38 GMT-0500 (Central Daylight Time),758366.3999999762,O,z,1304,49,1,86.bmp,-120,-120,87.bmp,120,-120,88.bmp,-120,120,89.bmp,120,120,9353.100000023842,749013.2999999523,7012,yes,SM,C,87.bmp,120,-120,254435,248417,256451,250420,744989.0,738969.0,747006.0,740974.0,49
3,0,0,1,0,35,test,1,0,m,Thu Aug 29 2024 17:15:38 GMT-0500 (Central Daylight Time),768429.7999999523,O,None,2016,50,1,82.bmp,-120,-120,83.bmp,120,-120,84.bmp,-120,120,85.bmp,120,120,10052.099999964237,758377.6999999881,7012,yes,SM,C,82.bmp,-120,120,254435,248417,256451,250420,754353.0,748333.0,756369.0,750338.0,50
2,0,1,0,0,36,test,1,1,z,Thu Aug 29 2024 17:15:38 GMT-0500 (Central Daylight Time),777760.0,O,z,1277,51,1,94.bmp,-120,-120,95.bmp,120,-120,96.bmp,-120,120,97.bmp,120,120,9318.100000023842,768441.8999999762,7012,yes,SM,C,95.bmp,120,-120,254435,248417,256451,250420,764416.0,758397.0,766433.0,760401.0,51
4,0,0,0,1,37,test,1,1,m,Thu Aug 29 2024 17:15:38 GMT-0500 (Central Daylight Time),787423.2999999523,O,m,1603,52,1,98.bmp,-120,-120,99.bmp,120,-120,100.bmp,-120,120,81.bmp,120,120,9651.199999988079,777772.0999999642,7012,yes,SM,C,98.bmp,120,120,254435,248417,256451,250420,773747.0,767728.0,775763.0,769731.0,52
3,0,0,1,0,38,test,1,1,z,Thu Aug 29 2024 17:15:38 GMT-0500 (Central Daylight Time),796670.3999999762,O,z,1195,53,1,51.bmp,-120,-120,52.bmp,120,-120,53.bmp,-120,120,54.bmp,120,120,9236.399999976158,787434.0,7012,yes,SM,C,53.bmp,-120,120,254435,248417,256451,250420,783410.0,777390.0,785427.0,779395.0,53
1,1,0,0,0,39,test,1,1,m,Thu Aug 29 2024 17:15:38 GMT-0500 (Central Daylight Time),805950.5999999642,O,m,1221,54,1,55.bmp,-120,-120,56.bmp,120,-120,57.bmp,-120,120,58.bmp,120,120,9268.800000011921,796681.7999999523,7012,yes,SM,C,57.bmp,-120,-120,254435,248417,256451,250420,792657.0,786638.0,794673.0,788642.0,54
4,0,0,0,1,39,test,1,0,z,Thu Aug 29 2024 17:15:38 GMT-0500 (Central Daylight Time),816014.1999999881,O,None,2015,55,1,59.bmp,-120,-120,60.bmp,120,-120,61.bmp,-120,120,62.bmp,120,120,10052.699999988079,805961.5,7012,yes,SM,C,62.bmp,120,120,254435,248417,256451,250420,801937.0,795917.0,803954.0,797922.0,55
2,0,1,0,0,40,test,1,1,m,Thu Aug 29 2024 17:15:38 GMT-0500 (Central Daylight Time),825727.2999999523,O,m,1653,56,1,63.bmp,-120,-120,64.bmp,120,-120,65.bmp,-120,120,66.bmp,120,120,9702.399999976158,816024.8999999762,7012,yes,SM,C,63.bmp,120,-120,254435,248417,256451,250420,812001.0,805981.0,814017.0,807985.0,56
4,0,0,0,1,41,test,1,1,m,Thu Aug 29 2024 17:15:38 GMT-0500 (Central Daylight Time),835091.0,O,m,1307,57,1,67.bmp,-120,-120,68.bmp,120,-120,69.bmp,-120,120,70.bmp,120,120,9353.200000047684,825737.7999999523,7012,yes,SM,C,68.bmp,120,120,254435,248417,256451,250420,821714.0,815694.0,823731.0,817699.0,57
3,0,0,1,0,42,test,1,1,z,Thu Aug 29 2024 17:15:38 GMT-0500 (Central Daylight Time),844721.1999999881,O,z,1575,58,1,71.bmp,-120,-120,72.bmp,120,-120,73.bmp,-120,120,74.bmp,120,120,9619.600000023842,835101.5999999642,7012,yes,SM,C,73.bmp,-120,120,254435,248417,256451,250420,831078.0,825057.0,833094.0,827063.0,58
2,0,1,0,0,42,test,1,0,m,Thu Aug 29 2024 17:15:38 GMT-0500 (Central Daylight Time),854784.5999999642,O,None,2016,59,1,75.bmp,-120,-120,76.bmp,120,-120,77.bmp,-120,120,78.bmp,120,120,10053.0,844731.5999999642,7012,yes,SM,C,78.bmp,120,-120,254435,248417,256451,250420,840708.0,834687.0,842724.0,836693.0,59
1,1,0,0,0,43,test,1,1,z,Thu Aug 29 2024 17:15:38 GMT-0500 (Central Daylight Time),863798.1999999881,O,z,953,60,1,79.bmp,-120,-120,80.bmp,120,-120,81.bmp,-120,120,82.bmp,120,120,9001.400000035763,854796.7999999523,7012,yes,SM,C,79.bmp,-120,-120,254435,248417,256451,250420,850771.0,844752.0,852787.0,846756.0,60
2,0,1,0,0,44,test,1,1,z,Thu Aug 29 2024 17:15:38 GMT-0500 (Central Daylight Time),872911.6999999881,O,z,1061,61,1,83.bmp,-120,-120,84.bmp,120,-120,85.bmp,-120,120,86.bmp,120,120,9101.699999988079,863810.0,7012,yes,SM,C,84.bmp,120,-120,254435,248417,256451,250420,859785.0,853766.0,861801.0,855769.0,61
4,0,0,0,1,45,test,1,1,z,Thu Aug 29 2024 17:15:38 GMT-0500 (Central Daylight Time),882275.2999999523,O,z,1314,62,1,91.bmp,-120,-120,92.bmp,120,-120,93.bmp,-120,120,94.bmp,120,120,9352.399999976158,872922.8999999762,7012,yes,SM,C,94.bmp,120,120,254435,248417,256451,250420,868899.0,862879.0,870915.0,864883.0,62
1,1,0,0,0,46,test,1,1,m,Thu Aug 29 2024 17:15:38 GMT-0500 (Central Daylight Time),891605.5,O,m,1272,63,1,95.bmp,-120,-120,96.bmp,120,-120,97.bmp,-120,120,98.bmp,120,120,9318.300000011921,882287.1999999881,7012,yes,SM,C,95.bmp,-120,120,254435,248417,256451,250420,878262.0,872243.0,880278.0,874247.0,63
2,0,1,0,0,46,test,1,0,z,Thu Aug 29 2024 17:15:38 GMT-0500 (Central Daylight Time),901669.0,O,None,2015,64,1,99.bmp,-120,-120,100.bmp,120,-120,62.bmp,-120,120,51.bmp,120,120,10052.700000047684,891616.2999999523,7012,yes,SM,C,100.bmp,120,-120,254435,248417,256451,250420,887592.0,881572.0,889609.0,883577.0,64
4,0,0,0,1,46,test,1,0,m,Thu Aug 29 2024 17:15:38 GMT-0500 (Central Daylight Time),911549.0999999642,O,z,1821,65,1,52.bmp,-120,-120,53.bmp,120,-120,54.bmp,-120,120,55.bmp,120,120,9869.399999976158,901679.6999999881,7012,yes,SM,C,54.bmp,120,120,254435,248417,256451,250420,897656.0,891635.0,899672.0,893640.0,65
3,0,0,1,0,47,test,1,1,m,Thu Aug 29 2024 17:15:38 GMT-0500 (Central Daylight Time),920912.6999999881,O,m,1310,66,1,56.bmp,-120,-120,57.bmp,120,-120,58.bmp,-120,120,59.bmp,120,120,9352.800000011921,911559.8999999762,7012,yes,SM,C,59.bmp,-120,120,254435,248417,256451,250420,907536.0,901515.0,909552.0,903521.0,66
2,0,1,0,0,48,test,1,1,m,Thu Aug 29 2024 17:15:38 GMT-0500 (Central Daylight Time),930026.1999999881,O,m,1049,67,1,87.bmp,-120,-120,88.bmp,120,-120,89.bmp,-120,120,90.bmp,120,120,9101.800000011921,920924.3999999762,7012,yes,SM,C,89.bmp,120,-120,254435,248417,256451,250420,916899.0,910880.0,918916.0,912884.0,67
3,0,0,1,0,48,test,1,0,z,Thu Aug 29 2024 17:15:38 GMT-0500 (Central Daylight Time),940089.7999999523,O,None,2016,68,1,60.bmp,-120,-120,61.bmp,120,-120,62.bmp,-120,120,63.bmp,120,120,10052.0,930037.7999999523,7012,yes,SM,C,62.bmp,-120,120,254435,248417,256451,250420,926013.0,919993.0,928029.0,921998.0,68
1,1,0,0,0,49,test,1,1,m,Thu Aug 29 2024 17:15:38 GMT-0500 (Central Daylight Time),949153.3999999762,O,m,1000,69,1,64.bmp,-120,-120,65.bmp,120,-120,66.bmp,-120,120,67.bmp,120,120,9052.399999976158,940101.0,7012,yes,SM,C,65.bmp,-120,-120,254435,248417,256451,250420,936076.0,930057.0,938093.0,932061.0,69
2,0,1,0,0,50,test,1,1,m,Thu Aug 29 2024 17:15:38 GMT-0500 (Central Daylight Time),958217.0,O,m,1010,70,1,68.bmp,-120,-120,69.bmp,120,-120,70.bmp,-120,120,71.bmp,120,120,9052.800000011921,949164.1999999881,7012,yes,SM,C,70.bmp,120,-120,254435,248417,256451,250420,945140.0,939120.0,947156.0,941125.0,70
4,0,0,0,1,51,test,1,1,z,Thu Aug 29 2024 17:15:38 GMT-0500 (Central Daylight Time),967314.0,O,z,1033,71,1,72.bmp,-120,-120,73.bmp,120,-120,74.bmp,-120,120,75.bmp,120,120,9086.100000023842,958227.8999999762,7012,yes,SM,C,75.bmp,120,120,254435,248417,256451,250420,954204.0,948184.0,956220.0,950189.0,71
1,1,0,0,0,52,test,1,1,z,Thu Aug 29 2024 17:15:38 GMT-0500 (Central Daylight Time),976011.0999999642,O,z,641,72,1,76.bmp,-120,-120,77.bmp,120,-120,78.bmp,-120,120,79.bmp,120,120,8686.699999988079,967324.3999999762,7012,yes,SM,C,76.bmp,-120,-120,254435,248417,256451,250420,963301.0,957280.0,965317.0,959286.0,72
2,0,1,0,0,53,test,1,1,z,Thu Aug 29 2024 17:15:38 GMT-0500 (Central Daylight Time),985041.3999999762,O,z,967,73,1,80.bmp,-120,-120,81.bmp,120,-120,82.bmp,-120,120,83.bmp,120,120,9019.600000023842,976021.7999999523,7012,yes,SM,C,81.bmp,120,-120,254435,248417,256451,250420,971998.0,965977.0,974014.0,967983.0,73
4,0,0,0,1,54,test,1,1,m,Thu Aug 29 2024 17:15:38 GMT-0500 (Central Daylight Time),994404.1999999881,O,m,1304,74,1,84.bmp,-120,-120,85.bmp,120,-120,86.bmp,-120,120,87.bmp,120,120,9352.0,985052.1999999881,7012,yes,SM,C,86.bmp,120,120,254435,248417,256451,250420,981028.0,975008.0,983044.0,977013.0,74
2,0,1,0,0,54,test,1,0,m,Thu Aug 29 2024 17:15:38 GMT-0500 (Central Daylight Time),1004468.2999999523,O,None,2015,75,1,88.bmp,-120,-120,89.bmp,120,-120,90.bmp,-120,120,91.bmp,120,120,10061.0,994407.2999999523,7012,yes,SM,C,91.bmp,120,-120,254435,248417,256451,250420,990392.0,984363.0,992408.0,986377.0,75
1,1,0,0,0,55,test,1,1,z,Thu Aug 29 2024 17:15:38 GMT-0500 (Central Daylight Time),1013265.3999999762,O,z,742,76,1,92.bmp,-120,-120,93.bmp,120,-120,94.bmp,-120,120,95.bmp,120,120,8784.600000023842,1004480.7999999523,7012,yes,SM,C,92.bmp,-120,-120,254435,248417,256451,250420,1000455.0,994436.0,1002471.0,996440.0,76
3,0,0,1,0,56,test,1,1,z,Thu Aug 29 2024 17:15:38 GMT-0500 (Central Daylight Time),1022379.1999999881,O,z,1058,77,1,100.bmp,-120,-120,61.bmp,120,-120,51.bmp,-120,120,52.bmp,120,120,9101.900000035763,1013277.2999999523,7012,yes,SM,C,51.bmp,-120,120,254435,248417,256451,250420,1009252.0,1003233.0,1011268.0,1005237.0,77
1,1,0,0,0,56,test,1,0,m,Thu Aug 29 2024 17:15:38 GMT-0500 (Central Daylight Time),1031776.0,O,z,1335,78,1,96.bmp,-120,-120,97.bmp,120,-120,98.bmp,-120,120,99.bmp,120,120,9384.900000035763,1022391.0999999642,7012,yes,SM,C,97.bmp,-120,-120,254435,248417,256451,250420,1018366.0,1012347.0,1020382.0,1014351.0,78
4,0,0,0,1,57,test,1,1,m,Thu Aug 29 2024 17:15:38 GMT-0500 (Central Daylight Time),1041372.8999999762,O,m,1539,79,1,57.bmp,-120,-120,58.bmp,120,-120,59.bmp,-120,120,60.bmp,120,120,9582.699999988079,1031790.1999999881,7012,yes,SM,C,57.bmp,120,120,254435,248417,256451,250420,1027763.0,1021746.0,1029779.0,1023748.0,79
3,0,0,1,0,58,test,1,1,m,Thu Aug 29 2024 17:15:38 GMT-0500 (Central Daylight Time),1051169.5,O,m,1733,80,1,53.bmp,-120,-120,54.bmp,120,-120,55.bmp,-120,120,56.bmp,120,120,9784.700000047684,1041384.7999999523,7012,yes,SM,C,56.bmp,-120,120,254435,248417,256451,250420,1037359.0,1031340.0,1039376.0,1033344.0,80
