 Q  Q1  Q2  Q3  Q4  acc_sum block  block_c  correct correct_response                                                  datetime   endtime project response  response_time  row_sel session_number squiggle1  squiggle1x  squiggle1y squiggle2  squiggle2x  squiggle2y squiggle3  squiggle3x  squiggle3y squiggle4  squiggle4x  squiggle4y  start_end  starttime subject_id target_congruent task task_vers testsquiggle  testsquigglex  testsquiggley  time_practice_delay  time_practice_fixation  time_practice_stimuli  time_practice_study  time_test_delay  time_test_fixation  time_test_stimuli  time_test_study  trial
 1   1   0   0   0        1  prac        1        1                z Wed Nov 13 2024 11:10:37 GMT-0500 (Eastern Standard Time)  181715.5       I        z           1130        1              1   116.bmp        -120        -120   117.bmp         120        -120   118.bmp        -120         120   119.bmp         120         120     9945.3   171770.2       9005              yes   SM         A      116.bmp           -120           -120               169970                  163942                 171988               165954              NaN                 NaN                NaN              NaN      1
 3   0   0   1   0        1  prac        1        0                m Wed Nov 13 2024 11:10:37 GMT-0500 (Eastern Standard Time)  191882.7       I        z           1340        2              1   120.bmp        -120        -120   121.bmp         120        -120   122.bmp        -120         120   123.bmp         120         120    10162.7   181720.0       9005               no   SM         A      123.bmp           -120            120               179920                  173891                 181938               175903              NaN                 NaN                NaN              NaN      2
 4   0   0   0   1        2  prac        1        1                m Wed Nov 13 2024 11:10:37 GMT-0500 (Eastern Standard Time)  202032.6       I        m           1318        3              1   124.bmp        -120        -120   125.bmp         120        -120   126.bmp        -120         120   127.bmp         120         120    10138.4   191894.2       9005               no   SM         A      124.bmp            120            120               190087                  184066                 192104               186071              NaN                 NaN                NaN              NaN      3
 2   0   1   0   0        3  prac        1        1                z Wed Nov 13 2024 11:10:37 GMT-0500 (Eastern Standard Time)  211949.4       I        z           1103        4              1   128.bmp        -120        -120   129.bmp         120        -120   130.bmp        -120         120   131.bmp         120         120     9909.1   202040.3       9005              yes   SM         A      129.bmp            120           -120               200236                  194212                 202238               196221              NaN                 NaN                NaN              NaN      4
 3   0   0   1   0        4  prac        1        1                z Wed Nov 13 2024 11:10:37 GMT-0500 (Eastern Standard Time)  221782.5       I        z           1011        5              1   132.bmp        -120        -120   133.bmp         120        -120   134.bmp        -120         120   135.bmp         120         120     9823.5   211959.0       9005              yes   SM         A      134.bmp           -120            120               210154                  204130                 212171               206138              NaN                 NaN                NaN              NaN      5
 1   1   0   0   0        4  prac        1        0                m Wed Nov 13 2024 11:10:37 GMT-0500 (Eastern Standard Time)  231682.5       I        z           1082        6              1   136.bmp        -120        -120   137.bmp         120        -120   138.bmp        -120         120   139.bmp         120         120     9892.3   221790.2       9005               no   SM         A      139.bmp           -120           -120               219987                  213961                 222004               215971              NaN                 NaN                NaN              NaN      6
 2   0   1   0   0        5  prac        1        1                m Wed Nov 13 2024 11:10:37 GMT-0500 (Eastern Standard Time)  241699.2       I        m           1198        7              1   140.bmp        -120        -120   141.bmp         120        -120   142.bmp        -120         120   143.bmp         120         120    10009.4   231689.8       9005               no   SM         A      140.bmp            120           -120               229887                  223861                 231904               225871              NaN                 NaN                NaN              NaN      7
 4   0   0   0   1        5  prac        1        0                z Wed Nov 13 2024 11:10:37 GMT-0500 (Eastern Standard Time)  251899.2       I        m           1373        8              1   144.bmp        -120        -120   145.bmp         120        -120   146.bmp        -120         120   147.bmp         120         120    10192.8   241706.4       9005              yes   SM         A      147.bmp            120            120               239904                  233878                 241921               235887              NaN                 NaN                NaN              NaN      8
 4   0   0   0   1        0  test        1        0                m Wed Nov 13 2024 11:10:37 GMT-0500 (Eastern Standard Time)  285266.0       I        z           1601        1              1   148.bmp        -120        -120   149.bmp         120        -120   150.bmp        -120         120   143.bmp         120         120     9659.9   275606.1       9005               no   SM         A      150.bmp            120            120               239904                  233878                 241921               235887         273804.0            267777.0           275821.0         269787.0      1
 2   0   1   0   0        1  test        1        1                m Wed Nov 13 2024 11:10:37 GMT-0500 (Eastern Standard Time)  294466.0       I        m           1134        2              1   101.bmp        -120        -120   102.bmp         120        -120   103.bmp        -120         120   104.bmp         120         120     9189.9   285276.1       9005               no   SM         A      103.bmp            120           -120               239904                  233878                 241921               235887         283470.0            277447.0           285488.0         279454.0      2
 1   1   0   0   0        2  test        1        1                z Wed Nov 13 2024 11:10:37 GMT-0500 (Eastern Standard Time)  304515.8       I        z           1999        3              1   105.bmp        -120        -120   106.bmp         120        -120   107.bmp        -120         120   108.bmp         120         120    10042.5   294473.3       9005              yes   SM         A      105.bmp           -120           -120               239904                  233878                 241921               235887         292670.0            286644.0           294687.0         288654.0      3
 3   0   0   1   0        3  test        1        1                m Wed Nov 13 2024 11:10:37 GMT-0500 (Eastern Standard Time)  313982.1       I        m           1404        4              1   109.bmp        -120        -120   110.bmp         120        -120   111.bmp        -120         120   112.bmp         120         120     9460.4   304521.7       9005               no   SM         A      109.bmp           -120            120               239904                  233878                 241921               235887         302720.0            296693.0           304737.0         298704.0      4
 2   0   1   0   0        3  test        1        0                z Wed Nov 13 2024 11:10:37 GMT-0500 (Eastern Standard Time)  324049.4       I     None           2016        5              1   113.bmp        -120        -120   114.bmp         120        -120   115.bmp        -120         120   116.bmp         120         120    10062.9   313986.5       9005              yes   SM         A      114.bmp            120           -120               239904                  233878                 241921               235887         312187.0            306158.0           314204.0         308171.0      5
 3   0   0   1   0        3  test        1        0                z Wed Nov 13 2024 11:10:37 GMT-0500 (Eastern Standard Time)  333349.1       I        m           1248        6              1   117.bmp        -120        -120   118.bmp         120        -120   119.bmp        -120         120   120.bmp         120         120     9292.5   324056.6       9005              yes   SM         A      119.bmp           -120            120               239904                  233878                 241921               235887         322254.0            316228.0           324270.0         318237.0      6
 4   0   0   0   1        4  test        1        1                z Wed Nov 13 2024 11:10:37 GMT-0500 (Eastern Standard Time)  342799.1       I        z           1388        7              1   121.bmp        -120        -120   122.bmp         120        -120   123.bmp        -120         120   124.bmp         120         120     9440.9   333358.2       9005              yes   SM         A      124.bmp            120            120               239904                  233878                 241921               235887         331554.0            325529.0           333570.0         327537.0      7
 2   0   1   0   0        5  test        1        1                m Wed Nov 13 2024 11:10:37 GMT-0500 (Eastern Standard Time)  352382.6       I        m           1521        8              1   125.bmp        -120        -120   126.bmp         120        -120   127.bmp        -120         120   128.bmp         120         120     9576.2   342806.4       9005               no   SM         A      125.bmp            120           -120               239904                  233878                 241921               235887         341004.0            334978.0           343021.0         336987.0      8
 3   0   0   1   0        5  test        1        0                m Wed Nov 13 2024 11:10:37 GMT-0500 (Eastern Standard Time)  361915.9       I        z           1474        9              1   129.bmp        -120        -120   130.bmp         120        -120   131.bmp        -120         120   132.bmp         120         120     9523.0   352392.9       9005               no   SM         A      130.bmp           -120            120               239904                  233878                 241921               235887         350588.0            344564.0           352604.0         346571.0      9
 4   0   0   0   1        5  test        1        0                z Wed Nov 13 2024 11:10:37 GMT-0500 (Eastern Standard Time)  371599.3       I        m           1620       10              1   137.bmp        -120        -120   138.bmp         120        -120   139.bmp        -120         120   140.bmp         120         120     9676.2   361923.1       9005              yes   SM         A      140.bmp            120            120               239904                  233878                 241921               235887         360121.0            354094.0           362138.0         356104.0     10
 3   0   0   1   0        6  test        1        1                z Wed Nov 13 2024 11:10:37 GMT-0500 (Eastern Standard Time)  381016.0       I        z           1362       11              1   133.bmp        -120        -120   134.bmp         120        -120   135.bmp        -120         120   136.bmp         120         120     9407.8   371608.2       9005              yes   SM         A      135.bmp           -120            120               239904                  233878                 241921               235887         369804.0            363779.0           371820.0         365787.0     11
 2   0   1   0   0        6  test        1        0                m Wed Nov 13 2024 11:10:37 GMT-0500 (Eastern Standard Time)  391015.8       I        z           1944       12              1   141.bmp        -120        -120   142.bmp         120        -120   143.bmp        -120         120   144.bmp         120         120     9992.3   381023.5       9005               no   SM         A      141.bmp            120           -120               239904                  233878                 241921               235887         379221.0            373195.0           381238.0         375204.0     12
 3   0   0   1   0        7  test        1        1                m Wed Nov 13 2024 11:10:37 GMT-0500 (Eastern Standard Time)  400182.6       I        m           1114       13              1   145.bmp        -120        -120   146.bmp         120        -120   147.bmp        -120         120   148.bmp         120         120     9159.5   391023.1       9005               no   SM         A      146.bmp           -120            120               239904                  233878                 241921               235887         389220.0            383194.0           391237.0         385204.0     13
 1   1   0   0   0        8  test        1        1                z Wed Nov 13 2024 11:10:37 GMT-0500 (Eastern Standard Time)  410132.2       I        z           1897       14              1   149.bmp        -120        -120   150.bmp         120        -120   104.bmp        -120         120   101.bmp         120         120     9941.4   400190.8       9005              yes   SM         A      149.bmp           -120           -120               239904                  233878                 241921               235887         398387.0            392362.0           400404.0         394371.0     14
 4   0   0   0   1        8  test        1        0                m Wed Nov 13 2024 11:10:37 GMT-0500 (Eastern Standard Time)  420199.3       I     None           2016       15              1   110.bmp        -120        -120   111.bmp         120        -120   112.bmp        -120         120   113.bmp         120         120    10061.3   410138.0       9005               no   SM         A      111.bmp            120            120               239904                  233878                 241921               235887         408337.0            402309.0           410354.0         404320.0     15
 1   1   0   0   0        9  test        1        1                m Wed Nov 13 2024 11:10:37 GMT-0500 (Eastern Standard Time)  429316.0       I        m           1049       16              1   102.bmp        -120        -120   103.bmp         120        -120   104.bmp        -120         120   105.bmp         120         120     9108.8   420207.2       9005               no   SM         A      105.bmp           -120           -120               239904                  233878                 241921               235887         418404.0            412378.0           420421.0         414388.0     16
 3   0   0   1   0       10  test        1        1                m Wed Nov 13 2024 11:10:37 GMT-0500 (Eastern Standard Time)  438932.1       I        m           1564       17              1   122.bmp        -120        -120   123.bmp         120        -120   124.bmp        -120         120   125.bmp         120         120     9608.3   429323.8       9005               no   SM         A      122.bmp           -120            120               239904                  233878                 241921               235887         427521.0            421495.0           429538.0         423504.0     17
 1   1   0   0   0       11  test        1        1                z Wed Nov 13 2024 11:10:37 GMT-0500 (Eastern Standard Time)  448716.0       I        z           1724       18              1   106.bmp        -120        -120   107.bmp         120        -120   108.bmp        -120         120   109.bmp         120         120     9774.9   438941.1       9005              yes   SM         A      106.bmp           -120           -120               239904                  233878                 241921               235887         437137.0            431112.0           439154.0         433121.0     18
 2   0   1   0   0       11  test        1        0                z Wed Nov 13 2024 11:10:37 GMT-0500 (Eastern Standard Time)  458566.0       I        m           1797       19              1   126.bmp        -120        -120   127.bmp         120        -120   128.bmp        -120         120   129.bmp         120         120     9842.3   448723.7       9005              yes   SM         A      127.bmp            120           -120               239904                  233878                 241921               235887         446920.0            440895.0           448938.0         442904.0     19
 3   0   0   1   0       12  test        1        1                z Wed Nov 13 2024 11:10:37 GMT-0500 (Eastern Standard Time)  468099.3       I        z           1483       20              1   130.bmp        -120        -120   131.bmp         120        -120   132.bmp        -120         120   133.bmp         120         120     9523.4   458575.9       9005              yes   SM         A      132.bmp           -120            120               239904                  233878                 241921               235887         456771.0            450747.0           458787.0         452754.0     20
 1   1   0   0   0       12  test        1        0                m Wed Nov 13 2024 11:10:37 GMT-0500 (Eastern Standard Time)  477732.3       I        z           1581       21              1   114.bmp        -120        -120   115.bmp         120        -120   116.bmp        -120         120   117.bmp         120         120     9626.3   468106.0       9005               no   SM         A      116.bmp           -120           -120               239904                  233878                 241921               235887         466304.0            460277.0           468321.0         462288.0     21
 4   0   0   0   1       12  test        1        0                z Wed Nov 13 2024 11:10:37 GMT-0500 (Eastern Standard Time)  487482.8       I        m           1692       22              1   118.bmp        -120        -120   119.bmp         120        -120   120.bmp        -120         120   121.bmp         120         120     9743.0   477739.8       9005              yes   SM         A      121.bmp            120            120               239904                  233878                 241921               235887         475937.0            469911.0           477954.0         471921.0     22
 1   1   0   0   0       12  test        1        0                m Wed Nov 13 2024 11:10:37 GMT-0500 (Eastern Standard Time)  496699.4       I        z           1159       23              1   134.bmp        -120        -120   135.bmp         120        -120   136.bmp        -120         120   137.bmp         120         120     9208.4   487491.0       9005               no   SM         A      137.bmp           -120           -120               239904                  233878                 241921               235887         485687.0            479662.0           487704.0         481671.0     23
 2   0   1   0   0       12  test        1        0                z Wed Nov 13 2024 11:10:37 GMT-0500 (Eastern Standard Time)  506715.6       I        m           1957       24              1   142.bmp        -120        -120   143.bmp         120        -120   144.bmp        -120         120   145.bmp         120         120    10009.8   496705.8       9005              yes   SM         A      143.bmp            120           -120               239904                  233878                 241921               235887         494904.0            488877.0           496921.0         490888.0     24
 4   0   0   0   1       13  test        1        1                m Wed Nov 13 2024 11:10:37 GMT-0500 (Eastern Standard Time)  516649.3       I        m           1876       25              1   146.bmp        -120        -120   147.bmp         120        -120   148.bmp        -120         120   149.bmp         120         120     9929.3   506720.0       9005               no   SM         A      148.bmp            120            120               239904                  233878                 241921               235887         504921.0            498891.0           506937.0         500904.0     25
 1   1   0   0   0       13  test        1        0                z Wed Nov 13 2024 11:10:37 GMT-0500 (Eastern Standard Time)  525999.7       I        m           1288       26              1   138.bmp        -120        -120   139.bmp         120        -120   140.bmp        -120         120   141.bmp         120         120     9343.1   516656.6       9005              yes   SM         A      138.bmp           -120           -120               239904                  233878                 241921               235887         514854.0            508828.0           516871.0         510838.0     26
 4   0   0   0   1       13  test        1        0                z Wed Nov 13 2024 11:10:37 GMT-0500 (Eastern Standard Time)  535599.3       I        m           1537       27              1   150.bmp        -120        -120   111.bmp         120        -120   101.bmp        -120         120   102.bmp         120         120     9584.3   526015.0       9005              yes   SM         A      102.bmp            120            120               239904                  233878                 241921               235887         524204.0            518186.0           526221.0         520188.0     27
 3   0   0   1   0       13  test        1        0                m Wed Nov 13 2024 11:10:37 GMT-0500 (Eastern Standard Time)  545166.1       I        z           1505       28              1   103.bmp        -120        -120   104.bmp         120        -120   105.bmp        -120         120   106.bmp         120         120     9559.1   535607.0       9005               no   SM         A      103.bmp           -120            120               239904                  233878                 241921               235887         533804.0            527778.0           535822.0         529788.0     28
 2   0   1   0   0       14  test        1        1                z Wed Nov 13 2024 11:10:37 GMT-0500 (Eastern Standard Time)  554799.2       I        z           1571       29              1   107.bmp        -120        -120   108.bmp         120        -120   109.bmp        -120         120   110.bmp         120         120     9625.3   545173.9       9005              yes   SM         A      108.bmp            120           -120               239904                  233878                 241921               235887         543371.0            537345.0           545387.0         539355.0     29
 3   0   0   1   0       14  test        1        0                z Wed Nov 13 2024 11:10:37 GMT-0500 (Eastern Standard Time)  564282.6       I        m           1426       30              1   111.bmp        -120        -120   112.bmp         120        -120   113.bmp        -120         120   114.bmp         120         120     9476.1   554806.5       9005              yes   SM         A      113.bmp           -120            120               239904                  233878                 241921               235887         553004.0            546978.0           555021.0         548987.0     30
 1   1   0   0   0       15  test        1        1                z Wed Nov 13 2024 11:10:37 GMT-0500 (Eastern Standard Time)  573416.2       I        z           1078       31              1   115.bmp        -120        -120   116.bmp         120        -120   117.bmp        -120         120   118.bmp         120         120     9127.2   564289.0       9005              yes   SM         A      115.bmp           -120           -120               239904                  233878                 241921               235887         562487.0            556460.0           564504.0         558471.0     31
 2   0   1   0   0       16  test        1        1                m Wed Nov 13 2024 11:10:37 GMT-0500 (Eastern Standard Time)  582516.3       I        m           1033       32              1   119.bmp        -120        -120   120.bmp         120        -120   121.bmp        -120         120   122.bmp         120         120     9092.2   573424.1       9005               no   SM         A      119.bmp            120           -120               239904                  233878                 241921               235887         571621.0            565595.0           573638.0         567604.0     32
 4   0   0   0   1       16  test        1        0                z Wed Nov 13 2024 11:10:37 GMT-0500 (Eastern Standard Time)  591849.5       I        m           1277       33              1   131.bmp        -120        -120   132.bmp         120        -120   133.bmp        -120         120   134.bmp         120         120     9326.9   582522.6       9005              yes   SM         A      134.bmp            120            120               239904                  233878                 241921               235887         580721.0            574694.0           582738.0         576704.0     33
 2   0   1   0   0       17  test        1        1                z Wed Nov 13 2024 11:10:37 GMT-0500 (Eastern Standard Time)  601366.1       I        z           1464       34              1   123.bmp        -120        -120   124.bmp         120        -120   125.bmp        -120         120   126.bmp         120         120     9509.0   591857.1       9005              yes   SM         A      124.bmp            120           -120               239904                  233878                 241921               235887         590054.0            584028.0           592071.0         586038.0     34
 4   0   0   0   1       18  test        1        1                m Wed Nov 13 2024 11:10:37 GMT-0500 (Eastern Standard Time)  610949.5       I        m           1530       35              1   127.bmp        -120        -120   128.bmp         120        -120   129.bmp        -120         120   130.bmp         120         120     9573.3   601376.2       9005               no   SM         A      129.bmp            120            120               239904                  233878                 241921               235887         599570.0            593548.0           601588.0         595554.0     35
 3   0   0   1   0       19  test        1        1                m Wed Nov 13 2024 11:10:37 GMT-0500 (Eastern Standard Time)  620699.4       I        m           1692       36              1   135.bmp        -120        -120   136.bmp         120        -120   137.bmp        -120         120   138.bmp         120         120     9741.0   610958.4       9005               no   SM         A      135.bmp           -120            120               239904                  233878                 241921               235887         609154.0            603130.0           611171.0         605138.0     36
 1   1   0   0   0       20  test        1        1                m Wed Nov 13 2024 11:10:37 GMT-0500 (Eastern Standard Time)  630032.5       I        m           1269       37              1   139.bmp        -120        -120   140.bmp         120        -120   141.bmp        -120         120   142.bmp         120         120     9322.8   620709.7       9005               no   SM         A      140.bmp           -120           -120               239904                  233878                 241921               235887         618904.0            612881.0           620921.0         614888.0     37
 2   0   1   0   0       21  test        1        1                m Wed Nov 13 2024 11:10:37 GMT-0500 (Eastern Standard Time)  639816.3       I        m           1728       38              1   143.bmp        -120        -120   144.bmp         120        -120   145.bmp        -120         120   146.bmp         120         120     9778.9   630037.4       9005               no   SM         A      145.bmp            120           -120               239904                  233878                 241921               235887         628237.0            622209.0           630254.0         624221.0     38
 4   0   0   0   1       22  test        1        1                z Wed Nov 13 2024 11:10:37 GMT-0500 (Eastern Standard Time)  648949.5       I        z           1080       39              1   147.bmp        -120        -120   148.bmp         120        -120   149.bmp        -120         120   150.bmp         120         120     9125.9   639823.6       9005              yes   SM         A      150.bmp            120            120               239904                  233878                 241921               235887         638021.0            631995.0           640038.0         634005.0     39
 3   0   0   1   0       22  test        1        0                m Wed Nov 13 2024 11:10:37 GMT-0500 (Eastern Standard Time)  657982.9       I        z            972       40              1   104.bmp        -120        -120   105.bmp         120        -120   106.bmp        -120         120   107.bmp         120         120     9026.2   648956.7       9005               no   SM         A      105.bmp           -120            120               239904                  233878                 241921               235887         647154.0            641128.0           649171.0         643137.0     40
 1   1   0   0   0       23  test        1        1                z Wed Nov 13 2024 11:10:37 GMT-0500 (Eastern Standard Time)  667016.4       I        z            978       41              1   108.bmp        -120        -120   109.bmp         120        -120   110.bmp        -120         120   111.bmp         120         120     9024.8   657991.6       9005              yes   SM         A      108.bmp           -120           -120               239904                  233878                 241921               235887         656187.0            650163.0           658205.0         652171.0     41
 4   0   0   0   1       24  test        1        1                z Wed Nov 13 2024 11:10:37 GMT-0500 (Eastern Standard Time)  676665.8       I        z           1592       42              1   112.bmp        -120        -120   113.bmp         120        -120   114.bmp        -120         120   115.bmp         120         120     9642.4   667023.4       9005              yes   SM         A      115.bmp            120            120               239904                  233878                 241921               235887         665221.0            659195.0           667238.0         661205.0     42
 1   1   0   0   0       24  test        1        0                z Wed Nov 13 2024 11:10:37 GMT-0500 (Eastern Standard Time)  685766.2       I        m           1047       43              1   116.bmp        -120        -120   117.bmp         120        -120   118.bmp        -120         120   119.bmp         120         120     9095.9   676670.3       9005              yes   SM         A      116.bmp           -120           -120               239904                  233878                 241921               235887         674871.0            668842.0           676888.0         670854.0     43
 4   0   0   0   1       24  test        1        0                m Wed Nov 13 2024 11:10:37 GMT-0500 (Eastern Standard Time)  695833.0       I     None           2016       44              1   104.bmp        -120        -120   101.bmp         120        -120   102.bmp        -120         120   103.bmp         120         120    10059.3   685773.7       9005               no   SM         A      104.bmp            120            120               239904                  233878                 241921               235887         683971.0            677945.0           685988.0         679954.0     44
 1   1   0   0   0       24  test        1        0                m Wed Nov 13 2024 11:10:37 GMT-0500 (Eastern Standard Time)  705132.8       I        z           1239       45              1   128.bmp        -120        -120   129.bmp         120        -120   130.bmp        -120         120   131.bmp         120         120     9292.6   695840.2       9005               no   SM         A      131.bmp           -120           -120               239904                  233878                 241921               235887         694037.0            688011.0           696054.0         690020.0     45
 1   1   0   0   0       25  test        1        1                m Wed Nov 13 2024 11:10:37 GMT-0500 (Eastern Standard Time)  714433.0       I        m           1235       46              1   120.bmp        -120        -120   121.bmp         120        -120   122.bmp        -120         120   123.bmp         120         120     9291.2   705141.8       9005               no   SM         A      121.bmp           -120           -120               239904                  233878                 241921               235887         703337.0            697313.0           705355.0         699321.0     46
 3   0   0   1   0       25  test        1        0                z Wed Nov 13 2024 11:10:37 GMT-0500 (Eastern Standard Time)  723916.1       I        m           1441       47              1   124.bmp        -120        -120   125.bmp         120        -120   126.bmp        -120         120   127.bmp         120         120     9476.0   714440.1       9005              yes   SM         A      126.bmp           -120            120               239904                  233878                 241921               235887         712621.0            706611.0           714638.0         708620.0     47
 3   0   0   1   0       26  test        1        1                z Wed Nov 13 2024 11:10:37 GMT-0500 (Eastern Standard Time)  733816.4       I        z           1846       48              1   140.bmp        -120        -120   141.bmp         120        -120   142.bmp        -120         120   143.bmp         120         120     9893.0   723923.4       9005              yes   SM         A      142.bmp           -120            120               239904                  233878                 241921               235887         722121.0            716095.0           724137.0         718104.0     48
 2   0   1   0   0       26  test        1        0                z Wed Nov 13 2024 11:10:37 GMT-0500 (Eastern Standard Time)  743233.0       I        m           1353       49              1   136.bmp        -120        -120   137.bmp         120        -120   138.bmp        -120         120   139.bmp         120         120     9402.3   733830.7       9005              yes   SM         A      137.bmp            120           -120               239904                  233878                 241921               235887         732021.0            726002.0           734038.0         728004.0     49
 3   0   0   1   0       26  test        1        0                m Wed Nov 13 2024 11:10:37 GMT-0500 (Eastern Standard Time)  752599.3       I        z           1312       50              1   132.bmp        -120        -120   133.bmp         120        -120   134.bmp        -120         120   135.bmp         120         120     9358.7   743240.6       9005               no   SM         A      132.bmp           -120            120               239904                  233878                 241921               235887         741437.0            735412.0           743454.0         737421.0     50
 2   0   1   0   0       26  test        1        0                z Wed Nov 13 2024 11:10:37 GMT-0500 (Eastern Standard Time)  762166.3       I        m           1514       51              1   144.bmp        -120        -120   145.bmp         120        -120   146.bmp        -120         120   147.bmp         120         120     9563.0   752603.3       9005              yes   SM         A      145.bmp            120           -120               239904                  233878                 241921               235887         750804.0            744775.0           752821.0         746788.0     51
 4   0   0   0   1       27  test        1        1                m Wed Nov 13 2024 11:10:37 GMT-0500 (Eastern Standard Time)  771682.6       I        m           1452       52              1   148.bmp        -120        -120   149.bmp         120        -120   150.bmp        -120         120   131.bmp         120         120     9509.1   762173.5       9005               no   SM         A      148.bmp            120            120               239904                  233878                 241921               235887         760371.0            754345.0           762387.0         756354.0     52
 3   0   0   1   0       27  test        1        0                z Wed Nov 13 2024 11:10:37 GMT-0500 (Eastern Standard Time)  780816.2       I        m           1070       53              1   101.bmp        -120        -120   102.bmp         120        -120   103.bmp        -120         120   104.bmp         120         120     9127.2   771689.0       9005              yes   SM         A      103.bmp           -120            120               239904                  233878                 241921               235887         769888.0            763860.0           771905.0         765871.0     53
 1   1   0   0   0       27  test        1        0                m Wed Nov 13 2024 11:10:37 GMT-0500 (Eastern Standard Time)  790099.5       I        z           1217       54              1   105.bmp        -120        -120   106.bmp         120        -120   107.bmp        -120         120   108.bmp         120         120     9274.3   780825.2       9005               no   SM         A      107.bmp           -120           -120               239904                  233878                 241921               235887         779021.0            772996.0           781038.0         775004.0     54
 4   0   0   0   1       27  test        1        0                z Wed Nov 13 2024 11:10:37 GMT-0500 (Eastern Standard Time)  799233.0       I        m           1070       55              1   109.bmp        -120        -120   110.bmp         120        -120   111.bmp        -120         120   112.bmp         120         120     9125.1   790107.9       9005              yes   SM         A      112.bmp            120            120               239904                  233878                 241921               235887         788304.0            782279.0           790321.0         784287.0     55
 2   0   1   0   0       27  test        1        0                m Wed Nov 13 2024 11:10:37 GMT-0500 (Eastern Standard Time)  809299.7       I     None           2016       56              1   113.bmp        -120        -120   114.bmp         120        -120   115.bmp        -120         120   116.bmp         120         120    10057.5   799242.2       9005               no   SM         A      113.bmp            120           -120               239904                  233878                 241921               235887         797438.0            791413.0           799455.0         793421.0     56
 4   0   0   0   1       27  test        1        0                m Wed Nov 13 2024 11:10:37 GMT-0500 (Eastern Standard Time)  818666.4       I        z           1310       57              1   117.bmp        -120        -120   118.bmp         120        -120   119.bmp        -120         120   120.bmp         120         120     9358.2   809308.2       9005               no   SM         A      118.bmp            120            120               239904                  233878                 241921               235887         807504.0            801480.0           809521.0         803488.0     57
 3   0   0   1   0       28  test        1        1                z Wed Nov 13 2024 11:10:37 GMT-0500 (Eastern Standard Time)  827749.6       I        z           1031       58              1   121.bmp        -120        -120   122.bmp         120        -120   123.bmp        -120         120   124.bmp         120         120     9076.4   818673.2       9005              yes   SM         A      123.bmp           -120            120               239904                  233878                 241921               235887         816871.0            810844.0           818888.0         812855.0     58
 2   0   1   0   0       29  test        1        1                m Wed Nov 13 2024 11:10:37 GMT-0500 (Eastern Standard Time)  836832.6       I        m           1035       59              1   125.bmp        -120        -120   126.bmp         120        -120   127.bmp        -120         120   128.bmp         120         120     9074.2   827758.4       9005               no   SM         A      128.bmp            120           -120               239904                  233878                 241921               235887         825954.0            819930.0           827955.0         821938.0     59
 1   1   0   0   0       30  test        1        1                z Wed Nov 13 2024 11:10:37 GMT-0500 (Eastern Standard Time)  846016.5       I        z           1120       60              1   129.bmp        -120        -120   130.bmp         120        -120   131.bmp        -120         120   132.bmp         120         120     9180.2   836836.3       9005              yes   SM         A      129.bmp           -120           -120               239904                  233878                 241921               235887         835038.0            829007.0           837055.0         831021.0     60
 2   0   1   0   0       30  test        1        0                z Wed Nov 13 2024 11:10:37 GMT-0500 (Eastern Standard Time)  855349.7       I        m           1281       61              1   133.bmp        -120        -120   134.bmp         120        -120   135.bmp        -120         120   136.bmp         120         120     9324.6   846025.1       9005              yes   SM         A      134.bmp            120           -120               239904                  233878                 241921               235887         844221.0            838196.0           846238.0         840205.0     61
 4   0   0   0   1       30  test        1        0                z Wed Nov 13 2024 11:10:37 GMT-0500 (Eastern Standard Time)  865316.4       I        m           1900       62              1   141.bmp        -120        -120   142.bmp         120        -120   143.bmp        -120         120   144.bmp         120         120     9957.0   855359.4       9005              yes   SM         A      144.bmp            120            120               239904                  233878                 241921               235887         853554.0            847531.0           855571.0         849538.0     62
 1   1   0   0   0       30  test        1        0                m Wed Nov 13 2024 11:10:37 GMT-0500 (Eastern Standard Time)  875199.7       I        z           1821       63              1   145.bmp        -120        -120   146.bmp         120        -120   147.bmp        -120         120   148.bmp         120         120     9873.8   865325.9       9005               no   SM         A      145.bmp           -120            120               239904                  233878                 241921               235887         863521.0            857498.0           865538.0         859504.0     63
 2   0   1   0   0       30  test        1        0                z Wed Nov 13 2024 11:10:37 GMT-0500 (Eastern Standard Time)  884799.9       I        m           1538       64              1   149.bmp        -120        -120   150.bmp         120        -120   112.bmp        -120         120   101.bmp         120         120     9591.1   875208.8       9005              yes   SM         A      150.bmp            120           -120               239904                  233878                 241921               235887         873404.0            867380.0           875421.0         869388.0     64
 4   0   0   0   1       31  test        1        1                m Wed Nov 13 2024 11:10:37 GMT-0500 (Eastern Standard Time)  894499.8       I        m           1634       65              1   102.bmp        -120        -120   103.bmp         120        -120   104.bmp        -120         120   105.bmp         120         120     9692.6   884807.2       9005               no   SM         A      104.bmp            120            120               239904                  233878                 241921               235887         883004.0            876978.0           885021.0         878988.0     65
 3   0   0   1   0       32  test        1        1                m Wed Nov 13 2024 11:10:37 GMT-0500 (Eastern Standard Time)  903749.7       I        m           1198       66              1   106.bmp        -120        -120   107.bmp         120        -120   108.bmp        -120         120   109.bmp         120         120     9242.7   894507.0       9005               no   SM         A      109.bmp           -120            120               239904                  233878                 241921               235887         892704.0            886678.0           894721.0         888688.0     66
 2   0   1   0   0       33  test        1        1                m Wed Nov 13 2024 11:10:37 GMT-0500 (Eastern Standard Time)  913366.5       I        m           1564       67              1   137.bmp        -120        -120   138.bmp         120        -120   139.bmp        -120         120   140.bmp         120         120     9607.0   903759.5       9005               no   SM         A      139.bmp            120           -120               239904                  233878                 241921               235887         901954.0            895931.0           903971.0         897938.0     67
 3   0   0   1   0       33  test        1        0                z Wed Nov 13 2024 11:10:37 GMT-0500 (Eastern Standard Time)  923149.5       I        m           1722       68              1   110.bmp        -120        -120   111.bmp         120        -120   112.bmp        -120         120   113.bmp         120         120     9773.3   913376.2       9005              yes   SM         A      112.bmp           -120            120               239904                  233878                 241921               235887         911571.0            905548.0           913588.0         907554.0     68
 1   1   0   0   0       33  test        1        0                m Wed Nov 13 2024 11:10:37 GMT-0500 (Eastern Standard Time)  932183.1       I        z            980       69              1   114.bmp        -120        -120   115.bmp         120        -120   116.bmp        -120         120   117.bmp         120         120     9028.8   923154.3       9005               no   SM         A      115.bmp           -120           -120               239904                  233878                 241921               235887         921354.0            915326.0           923371.0         917338.0     69
 2   0   1   0   0       33  test        1        0                m Wed Nov 13 2024 11:10:37 GMT-0500 (Eastern Standard Time)  942116.5       I        z           1866       70              1   118.bmp        -120        -120   119.bmp         120        -120   120.bmp        -120         120   121.bmp         120         120     9926.2   932190.3       9005               no   SM         A      120.bmp            120           -120               239904                  233878                 241921               235887         930388.0            924362.0           932405.0         926371.0     70
 4   0   0   0   1       33  test        1        0                z Wed Nov 13 2024 11:10:37 GMT-0500 (Eastern Standard Time)  952083.1       I        m           1900       71              1   122.bmp        -120        -120   123.bmp         120        -120   124.bmp        -120         120   125.bmp         120         120     9959.8   942123.3       9005              yes   SM         A      125.bmp            120            120               239904                  233878                 241921               235887         940321.0            934295.0           942338.0         936305.0     71
 1   1   0   0   0       34  test        1        1                z Wed Nov 13 2024 11:10:37 GMT-0500 (Eastern Standard Time)  961216.3       I        z           1070       72              1   126.bmp        -120        -120   127.bmp         120        -120   128.bmp        -120         120   129.bmp         120         120     9126.4   952089.9       9005              yes   SM         A      126.bmp           -120           -120               239904                  233878                 241921               235887         950288.0            944261.0           952305.0         946271.0     72
 2   0   1   0   0       35  test        1        1                z Wed Nov 13 2024 11:10:37 GMT-0500 (Eastern Standard Time)  970516.0       I        z           1248       73              1   130.bmp        -120        -120   131.bmp         120        -120   132.bmp        -120         120   133.bmp         120         120     9292.3   961223.7       9005              yes   SM         A      131.bmp            120           -120               239904                  233878                 241921               235887         959421.0            953395.0           961438.0         955405.0     73
 4   0   0   0   1       36  test        1        1                m Wed Nov 13 2024 11:10:37 GMT-0500 (Eastern Standard Time)  979849.7       I        m           1277       74              1   134.bmp        -120        -120   135.bmp         120        -120   136.bmp        -120         120   137.bmp         120         120     9329.8   970519.9       9005               no   SM         A      136.bmp            120            120               239904                  233878                 241921               235887         968721.0            962691.0           970738.0         964705.0     74
 2   0   1   0   0       36  test        1        0                m Wed Nov 13 2024 11:10:37 GMT-0500 (Eastern Standard Time)  989916.6       I     None           2015       75              1   138.bmp        -120        -120   139.bmp         120        -120   140.bmp        -120         120   141.bmp         120         120    10060.3   979856.3       9005               no   SM         A      141.bmp            120           -120               239904                  233878                 241921               235887         978054.0            972027.0           980072.0         974038.0     75
 1   1   0   0   0       37  test        1        1                z Wed Nov 13 2024 11:10:37 GMT-0500 (Eastern Standard Time)  999116.2       I        z           1140       76              1   142.bmp        -120        -120   143.bmp         120        -120   144.bmp        -120         120   145.bmp         120         120     9192.5   989923.7       9005              yes   SM         A      142.bmp           -120           -120               239904                  233878                 241921               235887         988121.0            982095.0           990138.0         984105.0     76
 3   0   0   1   0       38  test        1        1                z Wed Nov 13 2024 11:10:37 GMT-0500 (Eastern Standard Time) 1008283.0       I        z           1109       77              1   150.bmp        -120        -120   111.bmp         120        -120   101.bmp        -120         120   102.bmp         120         120     9162.0   999121.0       9005              yes   SM         A      101.bmp           -120            120               239904                  233878                 241921               235887         997321.0            991292.0           999338.0         993304.0     77
 1   1   0   0   0       39  test        1        1                m Wed Nov 13 2024 11:10:37 GMT-0500 (Eastern Standard Time) 1017816.5       I        m           1478       78              1   146.bmp        -120        -120   147.bmp         120        -120   148.bmp        -120         120   149.bmp         120         120     9526.3  1008290.2       9005               no   SM         A      147.bmp           -120           -120               239904                  233878                 241921               235887        1006488.0           1000461.0          1008505.0        1002471.0     78
 4   0   0   0   1       40  test        1        1                m Wed Nov 13 2024 11:10:37 GMT-0500 (Eastern Standard Time) 1027749.7       I        m           1881       79              1   107.bmp        -120        -120   108.bmp         120        -120   109.bmp        -120         120   110.bmp         120         120     9918.2  1017831.5       9005               no   SM         A      107.bmp            120            120               239904                  233878                 241921               235887        1016021.0           1010003.0          1018038.0        1012005.0     79
 3   0   0   1   0       41  test        1        1                m Wed Nov 13 2024 11:10:37 GMT-0500 (Eastern Standard Time) 1037366.3       I        m           1563       80              1   103.bmp        -120        -120   104.bmp         120        -120   105.bmp        -120         120   106.bmp         120         120     9607.3  1027759.0       9005               no   SM         A      106.bmp           -120            120               239904                  233878                 241921               235887        1025955.0           1019930.0          1027971.0        1021938.0     80