 Q  Q1  Q2  Q3  Q4  acc_sum block  block_c  correct correct_response                                                  datetime   endtime project response  response_time  row_sel session_number squiggle1  squiggle1x  squiggle1y squiggle2  squiggle2x  squiggle2y squiggle3  squiggle3x  squiggle3y squiggle4  squiggle4x  squiggle4y  start_end  starttime subject_id target_congruent task task_vers testsquiggle  testsquigglex  testsquiggley  time_practice_delay  time_practice_fixation  time_practice_stimuli  time_practice_study  time_test_delay  time_test_fixation  time_test_stimuli  time_test_study  trial
 1   1   0   0   0        1  prac        1        1                z Fri Sep 13 2024 12:15:22 GMT-0500 (Central Daylight Time)  160054.0       I        z           1693        1              1   116.bmp        -120        -120   117.bmp         120        -120   118.bmp        -120         120   119.bmp         120         120    10506.7   149547.3       8002              yes   SM         A      116.bmp           -120           -120               151112                  145088                 153129               147097              NaN                 NaN                NaN              NaN      1
 3   0   0   1   0        2  prac        1        1                m Fri Sep 13 2024 12:15:22 GMT-0500 (Central Daylight Time)  170250.8       I        m           1381        2              1   120.bmp        -120        -120   121.bmp         120        -120   122.bmp        -120         120   123.bmp         120         120    10192.2   160058.6       8002               no   SM         A      123.bmp           -120            120               161626                  155599                 163642               157610              NaN                 NaN                NaN              NaN      2
 4   0   0   0   1        2  prac        1        0                m Fri Sep 13 2024 12:15:22 GMT-0500 (Central Daylight Time)  181080.6       I     None           2016        3              1   124.bmp        -120        -120   125.bmp         120        -120   126.bmp        -120         120   127.bmp         120         120    10826.3   170254.3       8002               no   SM         A      124.bmp            120            120               171822                  165794                 173838               167807              NaN                 NaN                NaN              NaN      3
 2   0   1   0   0        3  prac        1        1                z Fri Sep 13 2024 12:15:22 GMT-0500 (Central Daylight Time)  191760.6       I        z           1858        4              1   128.bmp        -120        -120   129.bmp         120        -120   130.bmp        -120         120   131.bmp         120         120    10676.6   181084.0       8002              yes   SM         A      129.bmp            120           -120               182652                  176624                 184669               178637              NaN                 NaN                NaN              NaN      4
 3   0   0   1   0        4  prac        1        1                z Fri Sep 13 2024 12:15:22 GMT-0500 (Central Daylight Time)  201874.2       I        z           1299        5              1   132.bmp        -120        -120   133.bmp         120        -120   134.bmp        -120         120   135.bmp         120         120    10110.2   191764.0       8002              yes   SM         A      134.bmp           -120            120               193332                  187304                 195348               189317              NaN                 NaN                NaN              NaN      5
 1   1   0   0   0        4  prac        1        0                m Fri Sep 13 2024 12:15:22 GMT-0500 (Central Daylight Time)  212087.6       I        z           1385        6              1   136.bmp        -120        -120   137.bmp         120        -120   138.bmp        -120         120   139.bmp         120         120    10209.9   201877.7       8002               no   SM         A      139.bmp           -120           -120               203446                  197418                 205462               199430              NaN                 NaN                NaN              NaN      6
 2   0   1   0   0        5  prac        1        1                m Fri Sep 13 2024 12:15:22 GMT-0500 (Central Daylight Time)  222351.0       I        m           1436        7              1   140.bmp        -120        -120   141.bmp         120        -120   142.bmp        -120         120   143.bmp         120         120    10260.2   212090.8       8002               no   SM         A      140.bmp            120           -120               213659                  207631                 215675               209644              NaN                 NaN                NaN              NaN      7
 4   0   0   0   1        5  prac        1        0                z Fri Sep 13 2024 12:15:22 GMT-0500 (Central Daylight Time)  233181.0       I     None           2016        8              1   144.bmp        -120        -120   145.bmp         120        -120   146.bmp        -120         120   147.bmp         120         120    10826.7   222354.3       8002              yes   SM         A      147.bmp            120            120               223923                  217895                 225939               219907              NaN                 NaN                NaN              NaN      8
 4   0   0   0   1        0  test        1        0                m Fri Sep 13 2024 12:15:22 GMT-0500 (Central Daylight Time)  286297.8       I     None           2016        1              1   148.bmp        -120        -120   149.bmp         120        -120   150.bmp        -120         120   143.bmp         120         120    10061.3   276236.5       8002               no   SM         A      150.bmp            120            120               223923                  217895                 225939               219907         277805.0            271777.0           279822.0         273790.0      1
 2   0   1   0   0        0  test        1        0                m Fri Sep 13 2024 12:15:22 GMT-0500 (Central Daylight Time)  296361.3       I     None           2015        2              1   101.bmp        -120        -120   102.bmp         120        -120   103.bmp        -120         120   104.bmp         120         120    10060.4   286300.9       8002               no   SM         A      103.bmp            120           -120               223923                  217895                 225939               219907         287869.0            281841.0           289886.0         283854.0      2
 1   1   0   0   0        0  test        1        0                z Fri Sep 13 2024 12:15:22 GMT-0500 (Central Daylight Time)  306424.7       I     None           2016        3              1   105.bmp        -120        -120   106.bmp         120        -120   107.bmp        -120         120   108.bmp         120         120    10060.2   296364.5       8002              yes   SM         A      105.bmp           -120           -120               223923                  217895                 225939               219907         297933.0            291905.0           299949.0         293917.0      3
 3   0   0   1   0        0  test        1        0                m Fri Sep 13 2024 12:15:22 GMT-0500 (Central Daylight Time)  316488.1       I     None           2016        4              1   109.bmp        -120        -120   110.bmp         120        -120   111.bmp        -120         120   112.bmp         120         120    10059.6   306428.5       8002               no   SM         A      109.bmp           -120            120               223923                  217895                 225939               219907         307996.0            301969.0           310012.0         303981.0      4
 2   0   1   0   0        0  test        1        0                z Fri Sep 13 2024 12:15:22 GMT-0500 (Central Daylight Time)  326551.6       I     None           2016        5              1   113.bmp        -120        -120   114.bmp         120        -120   115.bmp        -120         120   116.bmp         120         120    10059.6   316492.0       8002              yes   SM         A      114.bmp            120           -120               223923                  217895                 225939               219907         318060.0            312032.0           320076.0         314044.0      5
 3   0   0   1   0        0  test        1        0                z Fri Sep 13 2024 12:15:22 GMT-0500 (Central Daylight Time)  336615.2       I     None           2016        6              1   117.bmp        -120        -120   118.bmp         120        -120   119.bmp        -120         120   120.bmp         120         120    10060.0   326555.2       8002              yes   SM         A      119.bmp           -120            120               223923                  217895                 225939               219907         328123.0            322095.0           330139.0         324108.0      6
 4   0   0   0   1        0  test        1        0                z Fri Sep 13 2024 12:15:22 GMT-0500 (Central Daylight Time)  346761.8       I     None           2016        7              1   121.bmp        -120        -120   122.bmp         120        -120   123.bmp        -120         120   124.bmp         120         120    10143.5   336618.3       8002              yes   SM         A      124.bmp            120            120               223923                  217895                 225939               219907         338270.0            332158.0           340286.0         334256.0      7
 2   0   1   0   0        0  test        1        0                m Fri Sep 13 2024 12:15:22 GMT-0500 (Central Daylight Time)  356825.6       I     None           2016        8              1   125.bmp        -120        -120   126.bmp         120        -120   127.bmp        -120         120   128.bmp         120         120    10060.9   346764.7       8002               no   SM         A      125.bmp            120           -120               223923                  217895                 225939               219907         348334.0            342305.0           350350.0         344318.0      8
 3   0   0   1   0        1  test        1        1                m Fri Sep 13 2024 12:15:22 GMT-0500 (Central Daylight Time)  366322.7       I        m           1450        9              1   129.bmp        -120        -120   130.bmp         120        -120   131.bmp        -120         120   132.bmp         120         120     9493.7   356829.0       8002               no   SM         A      130.bmp           -120            120               223923                  217895                 225939               219907         358397.0            352369.0           360413.0         354382.0      9
 4   0   0   0   1        2  test        1        1                z Fri Sep 13 2024 12:15:22 GMT-0500 (Central Daylight Time)  376335.9       I        z           1961       10              1   137.bmp        -120        -120   138.bmp         120        -120   139.bmp        -120         120   140.bmp         120         120    10010.4   366325.5       8002              yes   SM         A      140.bmp            120            120               223923                  217895                 225939               219907         367894.0            361866.0           369910.0         363879.0     10
 3   0   0   1   0        3  test        1        1                z Fri Sep 13 2024 12:15:22 GMT-0500 (Central Daylight Time)  385811.5       I        z           1427       11              1   133.bmp        -120        -120   134.bmp         120        -120   135.bmp        -120         120   136.bmp         120         120     9472.4   376339.1       8002              yes   SM         A      135.bmp           -120            120               223923                  217895                 225939               219907         377908.0            371879.0           379924.0         373892.0     11
 2   0   1   0   0        3  test        1        0                m Fri Sep 13 2024 12:15:22 GMT-0500 (Central Daylight Time)  395880.0       I     None           2016       12              1   141.bmp        -120        -120   142.bmp         120        -120   143.bmp        -120         120   144.bmp         120         120    10063.7   385816.3       8002               no   SM         A      141.bmp            120           -120               223923                  217895                 225939               219907         387388.0            381357.0           389404.0         383373.0     12
 3   0   0   1   0        4  test        1        1                m Fri Sep 13 2024 12:15:22 GMT-0500 (Central Daylight Time)  405660.0       I        m           1723       13              1   145.bmp        -120        -120   146.bmp         120        -120   147.bmp        -120         120   148.bmp         120         120     9776.8   395883.2       8002               no   SM         A      146.bmp           -120            120               223923                  217895                 225939               219907         397451.0            391423.0           399468.0         393436.0     13
 1   1   0   0   0        4  test        1        0                z Fri Sep 13 2024 12:15:22 GMT-0500 (Central Daylight Time)  415724.0       I     None           2016       14              1   149.bmp        -120        -120   150.bmp         120        -120   104.bmp        -120         120   101.bmp         120         120    10060.7   405663.3       8002              yes   SM         A      149.bmp           -120           -120               223923                  217895                 225939               219907         407232.0            401204.0           409248.0         403216.0     14
 4   0   0   0   1        4  test        1        0                m Fri Sep 13 2024 12:15:22 GMT-0500 (Central Daylight Time)  425787.3       I     None           2015       15              1   110.bmp        -120        -120   111.bmp         120        -120   112.bmp        -120         120   113.bmp         120         120    10059.8   415727.5       8002               no   SM         A      111.bmp            120            120               223923                  217895                 225939               219907         417295.0            411268.0           419312.0         413280.0     15
 1   1   0   0   0        5  test        1        1                m Fri Sep 13 2024 12:15:22 GMT-0500 (Central Daylight Time)  435767.3       I        m           1920       16              1   102.bmp        -120        -120   103.bmp         120        -120   104.bmp        -120         120   105.bmp         120         120     9977.2   425790.1       8002               no   SM         A      105.bmp           -120           -120               223923                  217895                 225939               219907         427359.0            421330.0           429375.0         423344.0     16
 3   0   0   1   0        6  test        1        1                m Fri Sep 13 2024 12:15:22 GMT-0500 (Central Daylight Time)  445430.9       I        m           1604       17              1   122.bmp        -120        -120   123.bmp         120        -120   124.bmp        -120         120   125.bmp         120         120     9660.4   435770.5       8002               no   SM         A      122.bmp           -120            120               223923                  217895                 225939               219907         437339.0            431311.0           439355.0         433324.0     17
 1   1   0   0   0        6  test        1        0                z Fri Sep 13 2024 12:15:22 GMT-0500 (Central Daylight Time)  455494.7       I     None           2016       18              1   106.bmp        -120        -120   107.bmp         120        -120   108.bmp        -120         120   109.bmp         120         120    10060.7   445434.0       8002              yes   SM         A      106.bmp           -120           -120               223923                  217895                 225939               219907         447003.0            440974.0           449019.0         442987.0     18
 2   0   1   0   0        6  test        1        0                z Fri Sep 13 2024 12:15:22 GMT-0500 (Central Daylight Time)  465559.3       I     None           2017       19              1   126.bmp        -120        -120   127.bmp         120        -120   128.bmp        -120         120   129.bmp         120         120    10061.3   455498.0       8002              yes   SM         A      127.bmp            120           -120               223923                  217895                 225939               219907         457066.0            451038.0           459082.0         453051.0     19
 3   0   0   1   0        6  test        1        0                z Fri Sep 13 2024 12:15:22 GMT-0500 (Central Daylight Time)  475621.6       I     None           2016       20              1   130.bmp        -120        -120   131.bmp         120        -120   132.bmp        -120         120   133.bmp         120         120    10058.8   465562.8       8002              yes   SM         A      132.bmp           -120            120               223923                  217895                 225939               219907         467130.0            461103.0           469146.0         463114.0     20
 1   1   0   0   0        6  test        1        0                m Fri Sep 13 2024 12:15:22 GMT-0500 (Central Daylight Time)  485151.8       I        z           1477       21              1   114.bmp        -120        -120   115.bmp         120        -120   116.bmp        -120         120   117.bmp         120         120     9527.3   475624.5       8002               no   SM         A      116.bmp           -120           -120               223923                  217895                 225939               219907         477193.0            471165.0           479210.0         473178.0     21
 4   0   0   0   1        7  test        1        1                z Fri Sep 13 2024 12:15:22 GMT-0500 (Central Daylight Time)  494765.6       I        z           1563       22              1   118.bmp        -120        -120   119.bmp         120        -120   120.bmp        -120         120   121.bmp         120         120     9611.1   485154.5       8002              yes   SM         A      121.bmp            120            120               223923                  217895                 225939               219907         486724.0            480695.0           488740.0         482708.0     22
 1   1   0   0   0        8  test        1        1                m Fri Sep 13 2024 12:15:22 GMT-0500 (Central Daylight Time)  504562.5       I        m           1733       23              1   134.bmp        -120        -120   135.bmp         120        -120   136.bmp        -120         120   137.bmp         120         120     9794.0   494768.5       8002               no   SM         A      137.bmp           -120           -120               223923                  217895                 225939               219907         496337.0            490309.0           498354.0         492322.0     23
 2   0   1   0   0        8  test        1        0                z Fri Sep 13 2024 12:15:22 GMT-0500 (Central Daylight Time)  514626.0       I     None           2016       24              1   142.bmp        -120        -120   143.bmp         120        -120   144.bmp        -120         120   145.bmp         120         120    10060.6   504565.4       8002              yes   SM         A      143.bmp            120           -120               223923                  217895                 225939               219907         506134.0            500106.0           508150.0         502119.0     24
 4   0   0   0   1        9  test        1        1                m Fri Sep 13 2024 12:15:22 GMT-0500 (Central Daylight Time)  524589.6       I        m           1913       25              1   146.bmp        -120        -120   147.bmp         120        -120   148.bmp        -120         120   149.bmp         120         120     9960.2   514629.4       8002               no   SM         A      148.bmp            120            120               223923                  217895                 225939               219907         516198.0            510170.0           518214.0         512182.0     25
 1   1   0   0   0       10  test        1        1                z Fri Sep 13 2024 12:15:22 GMT-0500 (Central Daylight Time)  534219.8       I        z           1574       26              1   138.bmp        -120        -120   139.bmp         120        -120   140.bmp        -120         120   141.bmp         120         120     9626.7   524593.1       8002              yes   SM         A      138.bmp           -120           -120               223923                  217895                 225939               219907         526162.0            520133.0           528177.0         522146.0     26
 4   0   0   0   1       11  test        1        1                z Fri Sep 13 2024 12:15:22 GMT-0500 (Central Daylight Time)  543867.0       I        z           1590       27              1   150.bmp        -120        -120   111.bmp         120        -120   101.bmp        -120         120   102.bmp         120         120     9643.8   534223.2       8002              yes   SM         A      102.bmp            120            120               223923                  217895                 225939               219907         535791.0            529763.0           537809.0         531776.0     27
 3   0   0   1   0       12  test        1        1                m Fri Sep 13 2024 12:15:22 GMT-0500 (Central Daylight Time)  553363.6       I        m           1448       28              1   103.bmp        -120        -120   104.bmp         120        -120   105.bmp        -120         120   106.bmp         120         120     9493.4   543870.2       8002               no   SM         A      103.bmp           -120            120               223923                  217895                 225939               219907         545438.0            539410.0           547455.0         541423.0     28
 2   0   1   0   0       12  test        1        0                z Fri Sep 13 2024 12:15:22 GMT-0500 (Central Daylight Time)  563427.3       I     None           2015       29              1   107.bmp        -120        -120   108.bmp         120        -120   109.bmp        -120         120   110.bmp         120         120    10060.9   553366.4       8002              yes   SM         A      108.bmp            120           -120               223923                  217895                 225939               219907         554936.0            548907.0           556952.0         550920.0     29
 3   0   0   1   0       13  test        1        1                z Fri Sep 13 2024 12:15:22 GMT-0500 (Central Daylight Time)  572707.5       I        z           1232       30              1   111.bmp        -120        -120   112.bmp         120        -120   113.bmp        -120         120   114.bmp         120         120     9277.4   563430.1       8002              yes   SM         A      113.bmp           -120            120               223923                  217895                 225939               219907         564999.0            558970.0           567015.0         560984.0     30
 1   1   0   0   0       14  test        1        1                z Fri Sep 13 2024 12:15:22 GMT-0500 (Central Daylight Time)  582271.5       I        z           1527       31              1   115.bmp        -120        -120   116.bmp         120        -120   117.bmp        -120         120   118.bmp         120         120     9561.5   572710.0       8002              yes   SM         A      115.bmp           -120           -120               223923                  217895                 225939               219907         574279.0            568250.0           576280.0         570264.0     31
 2   0   1   0   0       15  test        1        1                m Fri Sep 13 2024 12:15:22 GMT-0500 (Central Daylight Time)  591885.2       I        m           1564       32              1   119.bmp        -120        -120   120.bmp         120        -120   121.bmp        -120         120   122.bmp         120         120     9611.2   582274.0       8002               no   SM         A      119.bmp            120           -120               223923                  217895                 225939               219907         583843.0            577814.0           585859.0         579828.0     32
 4   0   0   0   1       16  test        1        1                z Fri Sep 13 2024 12:15:22 GMT-0500 (Central Daylight Time)  601831.9       I        z           1886       33              1   131.bmp        -120        -120   132.bmp         120        -120   133.bmp        -120         120   134.bmp         120         120     9943.8   591888.1       8002              yes   SM         A      134.bmp            120            120               223923                  217895                 225939               219907         593456.0            587428.0           595473.0         589442.0     33
 2   0   1   0   0       16  test        1        0                z Fri Sep 13 2024 12:15:22 GMT-0500 (Central Daylight Time)  611895.4       I     None           2015       34              1   123.bmp        -120        -120   124.bmp         120        -120   125.bmp        -120         120   126.bmp         120         120    10060.9   601834.5       8002              yes   SM         A      124.bmp            120           -120               223923                  217895                 225939               219907         603404.0            597375.0           605420.0         599388.0     34
 4   0   0   0   1       16  test        1        0                m Fri Sep 13 2024 12:15:22 GMT-0500 (Central Daylight Time)  621942.4       I        z           1996       35              1   127.bmp        -120        -120   128.bmp         120        -120   129.bmp        -120         120   130.bmp         120         120    10043.4   611899.0       8002               no   SM         A      129.bmp            120            120               223923                  217895                 225939               219907         613467.0            607439.0           615483.0         609452.0     35
 3   0   0   1   0       16  test        1        0                m Fri Sep 13 2024 12:15:22 GMT-0500 (Central Daylight Time)  631389.5       I        z           1397       36              1   135.bmp        -120        -120   136.bmp         120        -120   137.bmp        -120         120   138.bmp         120         120     9444.1   621945.4       8002               no   SM         A      135.bmp           -120            120               223923                  217895                 225939               219907         623514.0            617486.0           625530.0         619499.0     36
 1   1   0   0   0       17  test        1        1                m Fri Sep 13 2024 12:15:22 GMT-0500 (Central Daylight Time)  640569.8       I        m           1118       37              1   139.bmp        -120        -120   140.bmp         120        -120   141.bmp        -120         120   142.bmp         120         120     9177.2   631392.6       8002               no   SM         A      140.bmp           -120           -120               223923                  217895                 225939               219907         632961.0            626933.0           634977.0         628946.0     37
 2   0   1   0   0       18  test        1        1                m Fri Sep 13 2024 12:15:22 GMT-0500 (Central Daylight Time)  649933.5       I        m           1313       38              1   143.bmp        -120        -120   144.bmp         120        -120   145.bmp        -120         120   146.bmp         120         120     9360.1   640573.4       8002               no   SM         A      145.bmp            120           -120               223923                  217895                 225939               219907         642141.0            636114.0           644158.0         638126.0     38
 4   0   0   0   1       19  test        1        1                z Fri Sep 13 2024 12:15:22 GMT-0500 (Central Daylight Time)  659680.6       I        z           1694       39              1   147.bmp        -120        -120   148.bmp         120        -120   149.bmp        -120         120   150.bmp         120         120     9744.2   649936.4       8002              yes   SM         A      150.bmp            120            120               223923                  217895                 225939               219907         651505.0            645477.0           653521.0         647490.0     39
 3   0   0   1   0       20  test        1        1                m Fri Sep 13 2024 12:15:22 GMT-0500 (Central Daylight Time)  669727.2       I        m           1995       40              1   104.bmp        -120        -120   105.bmp         120        -120   106.bmp        -120         120   107.bmp         120         120    10043.3   659683.9       8002               no   SM         A      105.bmp           -120            120               223923                  217895                 225939               219907         661252.0            655224.0           663268.0         657237.0     40
 1   1   0   0   0       21  test        1        1                z Fri Sep 13 2024 12:15:22 GMT-0500 (Central Daylight Time)  678891.3       I        z           1107       41              1   108.bmp        -120        -120   109.bmp         120        -120   110.bmp        -120         120   111.bmp         120         120     9160.8   669730.5       8002              yes   SM         A      108.bmp           -120           -120               223923                  217895                 225939               219907         671299.0            665271.0           673316.0         667284.0     41
 4   0   0   0   1       22  test        1        1                z Fri Sep 13 2024 12:15:22 GMT-0500 (Central Daylight Time)  688887.7       I        z           1944       42              1   112.bmp        -120        -120   113.bmp         120        -120   114.bmp        -120         120   115.bmp         120         120     9993.4   678894.3       8002              yes   SM         A      115.bmp            120            120               223923                  217895                 225939               219907         680463.0            674435.0           682479.0         676447.0     42
 1   1   0   0   0       23  test        1        1                z Fri Sep 13 2024 12:15:22 GMT-0500 (Central Daylight Time)  698051.8       I        z           1107       43              1   116.bmp        -120        -120   117.bmp         120        -120   118.bmp        -120         120   119.bmp         120         120     9160.7   688891.1       8002              yes   SM         A      116.bmp           -120           -120               223923                  217895                 225939               219907         690459.0            684431.0           692476.0         686444.0     43
 4   0   0   0   1       24  test        1        1                m Fri Sep 13 2024 12:15:22 GMT-0500 (Central Daylight Time)  707249.1       I        m           1143       44              1   104.bmp        -120        -120   101.bmp         120        -120   102.bmp        -120         120   103.bmp         120         120     9194.4   698054.7       8002               no   SM         A      104.bmp            120            120               223923                  217895                 225939               219907         699624.0            693595.0           701640.0         695608.0     44
 1   1   0   0   0       24  test        1        0                m Fri Sep 13 2024 12:15:22 GMT-0500 (Central Daylight Time)  717329.0       I     None           2007       45              1   128.bmp        -120        -120   129.bmp         120        -120   130.bmp        -120         120   131.bmp         120         120    10077.3   707251.7       8002               no   SM         A      131.bmp           -120           -120               223923                  217895                 225939               219907         708821.0            702792.0           710862.0         704805.0     45
 1   1   0   0   0       25  test        1        1                m Fri Sep 13 2024 12:15:22 GMT-0500 (Central Daylight Time)  727142.8       I        m           1762       46              1   120.bmp        -120        -120   121.bmp         120        -120   122.bmp        -120         120   123.bmp         120         120     9811.2   717331.6       8002               no   SM         A      121.bmp           -120           -120               223923                  217895                 225939               219907         718901.0            712872.0           720917.0         714885.0     46
 3   0   0   1   0       26  test        1        1                z Fri Sep 13 2024 12:15:22 GMT-0500 (Central Daylight Time)  736706.1       I        z           1509       47              1   124.bmp        -120        -120   125.bmp         120        -120   126.bmp        -120         120   127.bmp         120         120     9560.5   727145.6       8002              yes   SM         A      126.bmp           -120            120               223923                  217895                 225939               219907         728714.0            722686.0           730730.0         724699.0     47
 3   0   0   1   0       27  test        1        1                z Fri Sep 13 2024 12:15:22 GMT-0500 (Central Daylight Time)  745853.4       I        z            981       48              1   140.bmp        -120        -120   141.bmp         120        -120   142.bmp        -120         120   143.bmp         120         120     9144.8   736708.6       8002              yes   SM         A      142.bmp           -120            120               223923                  217895                 225939               219907         738395.0            732249.0           740410.0         734393.0     48
 2   0   1   0   0       27  test        1        0                z Fri Sep 13 2024 12:15:22 GMT-0500 (Central Daylight Time)  755917.2       I     None           2016       49              1   136.bmp        -120        -120   137.bmp         120        -120   138.bmp        -120         120   139.bmp         120         120    10056.1   745861.1       8002              yes   SM         A      137.bmp            120           -120               223923                  217895                 225939               219907         747425.0            741401.0           749441.0         743410.0     49
 3   0   0   1   0       27  test        1        0                m Fri Sep 13 2024 12:15:22 GMT-0500 (Central Daylight Time)  765130.9       I        z           1158       50              1   132.bmp        -120        -120   133.bmp         120        -120   134.bmp        -120         120   135.bmp         120         120     9210.6   755920.3       8002               no   SM         A      132.bmp           -120            120               223923                  217895                 225939               219907         757489.0            751461.0           759505.0         753473.0     50
 2   0   1   0   0       27  test        1        0                z Fri Sep 13 2024 12:15:22 GMT-0500 (Central Daylight Time)  775194.4       I     None           2015       51              1   144.bmp        -120        -120   145.bmp         120        -120   146.bmp        -120         120   147.bmp         120         120    10060.8   765133.6       8002              yes   SM         A      145.bmp            120           -120               223923                  217895                 225939               219907         766702.0            760674.0           768718.0         762687.0     51
 4   0   0   0   1       28  test        1        1                m Fri Sep 13 2024 12:15:22 GMT-0500 (Central Daylight Time)  784441.3       I        m           1185       52              1   148.bmp        -120        -120   149.bmp         120        -120   150.bmp        -120         120   131.bmp         120         120     9244.1   775197.2       8002               no   SM         A      148.bmp            120            120               223923                  217895                 225939               219907         776767.0            770737.0           778782.0         772751.0     52
 3   0   0   1   0       28  test        1        0                z Fri Sep 13 2024 12:15:22 GMT-0500 (Central Daylight Time)  794305.0       I        m           1802       53              1   101.bmp        -120        -120   102.bmp         120        -120   103.bmp        -120         120   104.bmp         120         120     9860.7   784444.3       8002              yes   SM         A      103.bmp           -120            120               223923                  217895                 225939               219907         786013.0            779985.0           788029.0         781999.0     53
 1   1   0   0   0       28  test        1        0                m Fri Sep 13 2024 12:15:22 GMT-0500 (Central Daylight Time)  804368.3       I     None           2016       54              1   105.bmp        -120        -120   106.bmp         120        -120   107.bmp        -120         120   108.bmp         120         120    10059.7   794308.6       8002               no   SM         A      107.bmp           -120           -120               223923                  217895                 225939               219907         795877.0            789849.0           797892.0         791861.0     54
 4   0   0   0   1       28  test        1        0                z Fri Sep 13 2024 12:15:22 GMT-0500 (Central Daylight Time)  813465.7       I        m           1035       55              1   109.bmp        -120        -120   110.bmp         120        -120   111.bmp        -120         120   112.bmp         120         120     9094.8   804370.9       8002              yes   SM         A      112.bmp            120            120               223923                  217895                 225939               219907         805940.0            799911.0           807956.0         801925.0     55
 2   0   1   0   0       29  test        1        1                m Fri Sep 13 2024 12:15:22 GMT-0500 (Central Daylight Time)  822462.7       I        m            946       56              1   113.bmp        -120        -120   114.bmp         120        -120   115.bmp        -120         120   116.bmp         120         120     8993.7   813469.0       8002               no   SM         A      113.bmp            120           -120               223923                  217895                 225939               219907         815037.0            809009.0           817053.0         811022.0     56
 4   0   0   0   1       30  test        1        1                m Fri Sep 13 2024 12:15:22 GMT-0500 (Central Daylight Time)  832442.8       I        m           1925       57              1   117.bmp        -120        -120   118.bmp         120        -120   119.bmp        -120         120   120.bmp         120         120     9977.5   822465.3       8002               no   SM         A      118.bmp            120            120               223923                  217895                 225939               219907         824034.0            818006.0           826050.0         820019.0     57
 3   0   0   1   0       30  test        1        0                z Fri Sep 13 2024 12:15:22 GMT-0500 (Central Daylight Time)  841873.3       I        m           1376       58              1   121.bmp        -120        -120   122.bmp         120        -120   123.bmp        -120         120   124.bmp         120         120     9427.7   832445.6       8002              yes   SM         A      123.bmp           -120            120               223923                  217895                 225939               219907         834015.0            827986.0           836031.0         829999.0     58
 2   0   1   0   0       30  test        1        0                m Fri Sep 13 2024 12:15:22 GMT-0500 (Central Daylight Time)  851937.1       I     None           2016       59              1   125.bmp        -120        -120   126.bmp         120        -120   127.bmp        -120         120   128.bmp         120         120    10061.2   841875.9       8002               no   SM         A      128.bmp            120           -120               223923                  217895                 225939               219907         843445.0            837416.0           845461.0         839430.0     59
 1   1   0   0   0       30  test        1        0                z Fri Sep 13 2024 12:15:22 GMT-0500 (Central Daylight Time)  862000.3       I     None           2015       60              1   129.bmp        -120        -120   130.bmp         120        -120   131.bmp        -120         120   132.bmp         120         120    10060.3   851940.0       8002              yes   SM         A      129.bmp           -120           -120               223923                  217895                 225939               219907         853508.0            847480.0           855525.0         849493.0     60
 2   0   1   0   0       30  test        1        0                z Fri Sep 13 2024 12:15:22 GMT-0500 (Central Daylight Time)  872064.9       I     None           2017       61              1   133.bmp        -120        -120   134.bmp         120        -120   135.bmp        -120         120   136.bmp         120         120    10062.0   862002.9       8002              yes   SM         A      134.bmp            120           -120               223923                  217895                 225939               219907         863572.0            857543.0           865588.0         859557.0     61
 4   0   0   0   1       30  test        1        0                z Fri Sep 13 2024 12:15:22 GMT-0500 (Central Daylight Time)  882110.7       I     None           2002       62              1   141.bmp        -120        -120   142.bmp         120        -120   143.bmp        -120         120   144.bmp         120         120    10042.0   872068.7       8002              yes   SM         A      144.bmp            120            120               223923                  217895                 225939               219907         873635.0            867609.0           875649.0         869621.0     62
 1   1   0   0   0       31  test        1        1                m Fri Sep 13 2024 12:15:22 GMT-0500 (Central Daylight Time)  891524.1       I        m           1365       63              1   145.bmp        -120        -120   146.bmp         120        -120   147.bmp        -120         120   148.bmp         120         120     9410.4   882113.7       8002               no   SM         A      145.bmp           -120            120               223923                  217895                 225939               219907         883682.0            877654.0           885698.0         879667.0     63
 2   0   1   0   0       32  test        1        1                z Fri Sep 13 2024 12:15:22 GMT-0500 (Central Daylight Time)  900455.0       I        z            879       64              1   149.bmp        -120        -120   150.bmp         120        -120   112.bmp        -120         120   101.bmp         120         120     8928.4   891526.6       8002              yes   SM         A      150.bmp            120           -120               223923                  217895                 225939               219907         893096.0            887067.0           895112.0         889081.0     64
 4   0   0   0   1       33  test        1        1                m Fri Sep 13 2024 12:15:22 GMT-0500 (Central Daylight Time)  910335.2       I        m           1828       65              1   102.bmp        -120        -120   103.bmp         120        -120   104.bmp        -120         120   105.bmp         120         120     9877.4   900457.8       8002               no   SM         A      104.bmp            120            120               223923                  217895                 225939               219907         902027.0            895998.0           904043.0         898011.0     65
 3   0   0   1   0       34  test        1        1                m Fri Sep 13 2024 12:15:22 GMT-0500 (Central Daylight Time)  919799.1       I        m           1412       66              1   106.bmp        -120        -120   107.bmp         120        -120   108.bmp        -120         120   109.bmp         120         120     9460.5   910338.6       8002               no   SM         A      109.bmp           -120            120               223923                  217895                 225939               219907         911907.0            905879.0           913923.0         907892.0     66
 2   0   1   0   0       34  test        1        0                m Fri Sep 13 2024 12:15:22 GMT-0500 (Central Daylight Time)  929862.5       I     None           2017       67              1   137.bmp        -120        -120   138.bmp         120        -120   139.bmp        -120         120   140.bmp         120         120    10060.4   919802.1       8002               no   SM         A      139.bmp            120           -120               223923                  217895                 225939               219907         921371.0            915342.0           923386.0         917355.0     67
 3   0   0   1   0       35  test        1        1                z Fri Sep 13 2024 12:15:22 GMT-0500 (Central Daylight Time)  939292.7       I        z           1373       68              1   110.bmp        -120        -120   111.bmp         120        -120   112.bmp        -120         120   113.bmp         120         120     9427.3   929865.4       8002              yes   SM         A      112.bmp           -120            120               223923                  217895                 225939               219907         931434.0            925406.0           933450.0         927418.0     68
 1   1   0   0   0       35  test        1        0                m Fri Sep 13 2024 12:15:22 GMT-0500 (Central Daylight Time)  949356.3       I     None           2015       69              1   114.bmp        -120        -120   115.bmp         120        -120   116.bmp        -120         120   117.bmp         120         120    10060.9   939295.4       8002               no   SM         A      115.bmp           -120           -120               223923                  217895                 225939               219907         940864.0            934836.0           942880.0         936849.0     69
 2   0   1   0   0       35  test        1        0                m Fri Sep 13 2024 12:15:22 GMT-0500 (Central Daylight Time)  959419.9       I     None           2016       70              1   118.bmp        -120        -120   119.bmp         120        -120   120.bmp        -120         120   121.bmp         120         120    10060.7   949359.2       8002               no   SM         A      120.bmp            120           -120               223923                  217895                 225939               219907         950928.0            944899.0           952944.0         946912.0     70
 4   0   0   0   1       36  test        1        1                z Fri Sep 13 2024 12:15:22 GMT-0500 (Central Daylight Time)  969099.8       I        z           1631       71              1   122.bmp        -120        -120   123.bmp         120        -120   124.bmp        -120         120   125.bmp         120         120     9677.2   959422.6       8002              yes   SM         A      125.bmp            120            120               223923                  217895                 225939               219907         960991.0            954963.0           963008.0         956976.0     71
 1   1   0   0   0       37  test        1        1                z Fri Sep 13 2024 12:15:22 GMT-0500 (Central Daylight Time)  978180.6       I        z           1023       72              1   126.bmp        -120        -120   127.bmp         120        -120   128.bmp        -120         120   129.bmp         120         120     9078.2   969102.4       8002              yes   SM         A      126.bmp           -120           -120               223923                  217895                 225939               219907         970672.0            964643.0           972688.0         966656.0     72
 2   0   1   0   0       38  test        1        1                z Fri Sep 13 2024 12:15:22 GMT-0500 (Central Daylight Time)  987627.6       I        z           1391       73              1   130.bmp        -120        -120   131.bmp         120        -120   132.bmp        -120         120   133.bmp         120         120     9444.3   978183.3       8002              yes   SM         A      131.bmp            120           -120               223923                  217895                 225939               219907         979752.0            973723.0           981768.0         975737.0     73
 4   0   0   0   1       39  test        1        1                m Fri Sep 13 2024 12:15:22 GMT-0500 (Central Daylight Time)  996991.3       I        m           1319       74              1   134.bmp        -120        -120   135.bmp         120        -120   136.bmp        -120         120   137.bmp         120         120     9361.1   987630.2       8002               no   SM         A      136.bmp            120            120               223923                  217895                 225939               219907         989199.0            983170.0           991200.0         985184.0     74
 2   0   1   0   0       40  test        1        1                m Fri Sep 13 2024 12:15:22 GMT-0500 (Central Daylight Time) 1006471.7       I        m           1420       75              1   138.bmp        -120        -120   139.bmp         120        -120   140.bmp        -120         120   141.bmp         120         120     9477.2   996994.5       8002               no   SM         A      141.bmp            120           -120               223923                  217895                 225939               219907         998563.0            992535.0          1000579.0         994548.0     75
 1   1   0   0   0       41  test        1        1                z Fri Sep 13 2024 12:15:22 GMT-0500 (Central Daylight Time) 1015685.7       I        z           1164       76              1   142.bmp        -120        -120   143.bmp         120        -120   144.bmp        -120         120   145.bmp         120         120     9210.7  1006475.0       8002              yes   SM         A      142.bmp           -120           -120               223923                  217895                 225939               219907        1008043.0           1002015.0          1010059.0        1004028.0     76
 3   0   0   1   0       42  test        1        1                z Fri Sep 13 2024 12:15:22 GMT-0500 (Central Daylight Time) 1024932.5       I        z           1190       77              1   150.bmp        -120        -120   111.bmp         120        -120   101.bmp        -120         120   102.bmp         120         120     9244.2  1015688.3       8002              yes   SM         A      101.bmp           -120            120               223923                  217895                 225939               219907        1017257.0           1011228.0          1019273.0        1013242.0     77
 1   1   0   0   0       43  test        1        1                m Fri Sep 13 2024 12:15:22 GMT-0500 (Central Daylight Time) 1034346.2       I        m           1351       78              1   146.bmp        -120        -120   147.bmp         120        -120   148.bmp        -120         120   149.bmp         120         120     9410.7  1024935.5       8002               no   SM         A      147.bmp           -120           -120               223923                  217895                 225939               219907        1026504.0           1020476.0          1028520.0        1022489.0     78
 4   0   0   0   1       43  test        1        0                m Fri Sep 13 2024 12:15:22 GMT-0500 (Central Daylight Time) 1044409.8       I     None           2016       79              1   107.bmp        -120        -120   108.bmp         120        -120   109.bmp        -120         120   110.bmp         120         120    10055.5  1034354.3       8002               no   SM         A      107.bmp            120            120               223923                  217895                 225939               219907        1035918.0           1029895.0          1037934.0        1031903.0     79
 3   0   0   1   0       44  test        1        1                m Fri Sep 13 2024 12:15:22 GMT-0500 (Central Daylight Time) 1053323.7       I        m            858       80              1   103.bmp        -120        -120   104.bmp         120        -120   105.bmp        -120         120   106.bmp         120         120     8910.2  1044413.5       8002               no   SM         A      106.bmp           -120            120               223923                  217895                 225939               219907        1045981.0           1039954.0          1047997.0        1041967.0     80