 Q  Q1  Q2  Q3  Q4  acc_sum block  block_c  correct correct_response                                                  datetime       endtime project response  response_time  row_sel session_number squiggle1  squiggle1x  squiggle1y squiggle2  squiggle2x  squiggle2y squiggle3  squiggle3x  squiggle3y squiggle4  squiggle4x  squiggle4y    start_end     starttime subject_id target_congruent task task_vers testsquiggle  testsquigglex  testsquiggley  time_practice_delay  time_practice_fixation  time_practice_stimuli  time_practice_study  time_test_delay  time_test_fixation  time_test_stimuli  time_test_study  trial
 1   1   0   0   0        1  prac        1        1                z Fri Jan 10 2025 11:33:41 GMT-0500 (Eastern Standard Time)  75620.400001       I        z           1619        1              1   116.bmp        -120        -120   117.bmp         120        -120   118.bmp        -120         120   119.bmp         120         120 10438.800000  65181.600000       9007              yes   SM         A      116.bmp           -120           -120                69383                   63361                  71403                65369              NaN                 NaN                NaN              NaN      1
 3   0   0   1   0        1  prac        1        0                m Fri Jan 10 2025 11:33:41 GMT-0500 (Eastern Standard Time)  86453.800000       I     None           2013        2              1   120.bmp        -120        -120   121.bmp         120        -120   122.bmp        -120         120   123.bmp         120         120 10828.200000  75625.600000       9007               no   SM         A      123.bmp           -120            120                79833                   73805                  81852                75819              NaN                 NaN                NaN              NaN      2
 4   0   0   0   1        1  prac        1        0                m Fri Jan 10 2025 11:33:41 GMT-0500 (Eastern Standard Time)  97287.300000       I     None           2014        3              1   124.bmp        -120        -120   125.bmp         120        -120   126.bmp        -120         120   127.bmp         120         120 10829.300000  86458.000000       9007               no   SM         A      124.bmp            120            120                90667                   84637                  92686                86652              NaN                 NaN                NaN              NaN      3
 2   0   1   0   0        1  prac        1        0                z Fri Jan 10 2025 11:33:41 GMT-0500 (Eastern Standard Time) 107854.400001       I        m           1743        4              1   128.bmp        -120        -120   129.bmp         120        -120   130.bmp        -120         120   131.bmp         120         120 10560.000000  97294.400001       9007              yes   SM         A      129.bmp            120           -120               101500                   95474                 103519                97485              NaN                 NaN                NaN              NaN      4
 3   0   0   1   0        2  prac        1        1                z Fri Jan 10 2025 11:33:41 GMT-0500 (Eastern Standard Time) 118387.700001       I        z           1705        5              1   132.bmp        -120        -120   133.bmp         120        -120   134.bmp        -120         120   135.bmp         120         120 10524.400001 107863.300000       9007              yes   SM         A      134.bmp           -120            120               112067                  106043                 114084               108052              NaN                 NaN                NaN              NaN      5
 1   1   0   0   0        3  prac        1        1                m Fri Jan 10 2025 11:33:41 GMT-0500 (Eastern Standard Time) 128904.200001       I        m           1682        6              1   136.bmp        -120        -120   137.bmp         120        -120   138.bmp        -120         120   139.bmp         120         120 10508.600000 118395.600000       9007               no   SM         A      139.bmp           -120           -120               122600                  116575                 124619               118586              NaN                 NaN                NaN              NaN      6
 2   0   1   0   0        3  prac        1        0                m Fri Jan 10 2025 11:33:41 GMT-0500 (Eastern Standard Time) 139737.600000       I     None           2014        7              1   140.bmp        -120        -120   141.bmp         120        -120   142.bmp        -120         120   143.bmp         120         120 10825.700000 128911.900001       9007               no   SM         A      140.bmp            120           -120               133117                  127097                 135136               129102              NaN                 NaN                NaN              NaN      7
 4   0   0   0   1        4  prac        1        1                z Fri Jan 10 2025 11:33:41 GMT-0500 (Eastern Standard Time) 150104.300000       I        z           1533        8              1   144.bmp        -120        -120   145.bmp         120        -120   146.bmp        -120         120   147.bmp         120         120 10359.900000 139744.400001       9007              yes   SM         A      147.bmp            120            120               143950                  137924                 145969               139934              NaN                 NaN                NaN              NaN      8
 4   0   0   0   1        0  test        1        0                m Fri Jan 10 2025 11:33:41 GMT-0500 (Eastern Standard Time) 179037.800000       I     None           2013        1              1   148.bmp        -120        -120   149.bmp         120        -120   150.bmp        -120         120   143.bmp         120         120 10060.700000 168977.100000       9007               no   SM         A      150.bmp            120            120               143950                  137924                 145969               139934         173183.0            167156.0           175203.0         169169.0      1
 2   0   1   0   0        1  test        1        1                m Fri Jan 10 2025 11:33:41 GMT-0500 (Eastern Standard Time) 188871.100000       I        m           1769        2              1   101.bmp        -120        -120   102.bmp         120        -120   103.bmp        -120         120   104.bmp         120         120  9824.400000 179046.700001       9007               no   SM         A      103.bmp            120           -120               143950                  137924                 145969               139934         183250.0            177226.0           185269.0         179235.0      2
 1   1   0   0   0        2  test        1        1                z Fri Jan 10 2025 11:33:41 GMT-0500 (Eastern Standard Time) 198520.600000       I        z           1584        3              1   105.bmp        -120        -120   106.bmp         120        -120   107.bmp        -120         120   108.bmp         120         120  9640.900000 188879.700001       9007              yes   SM         A      105.bmp           -120           -120               143950                  137924                 145969               139934         193083.0            187059.0           195102.0         189069.0      3
 3   0   0   1   0        2  test        1        0                m Fri Jan 10 2025 11:33:41 GMT-0500 (Eastern Standard Time) 208420.700001       I        z           1837        4              1   109.bmp        -120        -120   110.bmp         120        -120   111.bmp        -120         120   112.bmp         120         120  9892.500000 198528.200001       9007               no   SM         A      109.bmp           -120            120               143950                  137924                 145969               139934         202733.0            196707.0           204753.0         198719.0      4
 2   0   1   0   0        2  test        1        0                z Fri Jan 10 2025 11:33:41 GMT-0500 (Eastern Standard Time) 218454.300000       I        m           1970        5              1   113.bmp        -120        -120   114.bmp         120        -120   115.bmp        -120         120   116.bmp         120         120 10026.400000 208427.900001       9007              yes   SM         A      114.bmp            120           -120               143950                  137924                 145969               139934         212634.0            206607.0           214653.0         208618.0      5
 3   0   0   1   0        2  test        1        0                z Fri Jan 10 2025 11:33:41 GMT-0500 (Eastern Standard Time) 228520.600000       I     None           2013        6              1   117.bmp        -120        -120   118.bmp         120        -120   119.bmp        -120         120   120.bmp         120         120 10057.900000 218462.700001       9007              yes   SM         A      119.bmp           -120            120               143950                  137924                 145969               139934         222667.0            216642.0           224686.0         218652.0      6
 4   0   0   0   1        2  test        1        0                z Fri Jan 10 2025 11:33:41 GMT-0500 (Eastern Standard Time) 237987.700001       I        m           1405        7              1   121.bmp        -120        -120   122.bmp         120        -120   123.bmp        -120         120   124.bmp         120         120  9462.000000 228525.700001       9007              yes   SM         A      124.bmp            120            120               143950                  137924                 145969               139934         232734.0            226705.0           234753.0         228719.0      7
 2   0   1   0   0        3  test        1        1                m Fri Jan 10 2025 11:33:41 GMT-0500 (Eastern Standard Time) 247387.500000       I        m           1332        8              1   125.bmp        -120        -120   126.bmp         120        -120   127.bmp        -120         120   128.bmp         120         120  9390.799999 237996.700001       9007               no   SM         A      125.bmp            120           -120               143950                  137924                 145969               139934         242200.0            236176.0           244219.0         238186.0      8
 3   0   0   1   0        4  test        1        1                m Fri Jan 10 2025 11:33:41 GMT-0500 (Eastern Standard Time) 256754.000000       I        m           1306        9              1   129.bmp        -120        -120   130.bmp         120        -120   131.bmp        -120         120   132.bmp         120         120  9358.000000 247396.000000       9007               no   SM         A      130.bmp           -120            120               143950                  137924                 145969               139934         251600.0            245575.0           253619.0         247586.0      9
 4   0   0   0   1        4  test        1        0                z Fri Jan 10 2025 11:33:41 GMT-0500 (Eastern Standard Time) 266820.900001       I     None           2014       10              1   137.bmp        -120        -120   138.bmp         120        -120   139.bmp        -120         120   140.bmp         120         120 10059.900001 256761.000000       9007              yes   SM         A      140.bmp            120            120               143950                  137924                 145969               139934         260967.0            254940.0           262986.0         256952.0     10
 3   0   0   1   0        5  test        1        1                z Fri Jan 10 2025 11:33:41 GMT-0500 (Eastern Standard Time) 276203.600000       I        z           1328       11              1   133.bmp        -120        -120   134.bmp         120        -120   135.bmp        -120         120   136.bmp         120         120  9372.100000 266831.500000       9007              yes   SM         A      135.bmp           -120            120               143950                  137924                 145969               139934         271033.0            265011.0           273053.0         267018.0     11
 2   0   1   0   0        5  test        1        0                m Fri Jan 10 2025 11:33:41 GMT-0500 (Eastern Standard Time) 285787.900001       I        z           1547       12              1   141.bmp        -120        -120   142.bmp         120        -120   143.bmp        -120         120   144.bmp         120         120  9579.700000 276208.200001       9007               no   SM         A      141.bmp            120           -120               143950                  137924                 145969               139934         280416.0            274387.0           282420.0         276402.0     12
 3   0   0   1   0        6  test        1        1                m Fri Jan 10 2025 11:33:41 GMT-0500 (Eastern Standard Time) 295187.600000       I        m           1338       13              1   145.bmp        -120        -120   146.bmp         120        -120   147.bmp        -120         120   148.bmp         120         120  9391.800000 285795.800000       9007               no   SM         A      146.bmp           -120            120               143950                  137924                 145969               139934         290000.0            283975.0           292020.0         285986.0     13
 1   1   0   0   0        6  test        1        0                z Fri Jan 10 2025 11:33:41 GMT-0500 (Eastern Standard Time) 304687.600000       I        m           1443       14              1   149.bmp        -120        -120   150.bmp         120        -120   104.bmp        -120         120   101.bmp         120         120  9493.100000 295194.500000       9007              yes   SM         A      149.bmp           -120           -120               143950                  137924                 145969               139934         299400.0            293374.0           301420.0         295384.0     14
 4   0   0   0   1        7  test        1        1                m Fri Jan 10 2025 11:33:41 GMT-0500 (Eastern Standard Time) 313837.700001       I        m           1095       15              1   110.bmp        -120        -120   111.bmp         120        -120   112.bmp        -120         120   113.bmp         120         120  9142.100000 304695.600000       9007               no   SM         A      111.bmp            120            120               143950                  137924                 145969               139934         308900.0            302875.0           310919.0         304885.0     15
 1   1   0   0   0        7  test        1        0                m Fri Jan 10 2025 11:33:41 GMT-0500 (Eastern Standard Time) 323904.300000       I     None           2013       16              1   102.bmp        -120        -120   103.bmp         120        -120   104.bmp        -120         120   105.bmp         120         120 10057.700000 313846.600000       9007               no   SM         A      105.bmp           -120           -120               143950                  137924                 145969               139934         318050.0            312026.0           320069.0         314035.0     16
 3   0   0   1   0        8  test        1        1                m Fri Jan 10 2025 11:33:41 GMT-0500 (Eastern Standard Time) 333254.300000       I        m           1286       17              1   122.bmp        -120        -120   123.bmp         120        -120   124.bmp        -120         120   125.bmp         120         120  9342.599999 323911.700001       9007               no   SM         A      122.bmp           -120            120               143950                  137924                 145969               139934         328117.0            322091.0           330136.0         324102.0     17
 1   1   0   0   0        9  test        1        1                z Fri Jan 10 2025 11:33:41 GMT-0500 (Eastern Standard Time) 342704.200001       I        z           1392       18              1   106.bmp        -120        -120   107.bmp         120        -120   108.bmp        -120         120   109.bmp         120         120  9442.700001 333261.500000       9007              yes   SM         A      106.bmp           -120           -120               143950                  137924                 145969               139934         337467.0            331441.0           339486.0         333452.0     18
 2   0   1   0   0       10  test        1        1                z Fri Jan 10 2025 11:33:41 GMT-0500 (Eastern Standard Time) 352037.800000       I        z           1270       19              1   126.bmp        -120        -120   127.bmp         120        -120   128.bmp        -120         120   129.bmp         120         120  9325.700000 342712.100000       9007              yes   SM         A      127.bmp            120           -120               143950                  137924                 145969               139934         346917.0            340892.0           348936.0         342901.0     19
 3   0   0   1   0       11  test        1        1                z Fri Jan 10 2025 11:33:41 GMT-0500 (Eastern Standard Time) 361154.400001       I        z           1058       20              1   130.bmp        -120        -120   131.bmp         120        -120   132.bmp        -120         120   133.bmp         120         120  9109.000000 352045.400001       9007              yes   SM         A      132.bmp           -120            120               143950                  137924                 145969               139934         356250.0            350225.0           358269.0         352235.0     20
 1   1   0   0   0       12  test        1        1                m Fri Jan 10 2025 11:33:41 GMT-0500 (Eastern Standard Time) 370520.800000       I        m           1300       21              1   114.bmp        -120        -120   115.bmp         120        -120   116.bmp        -120         120   117.bmp         120         120  9357.300000 361163.500000       9007               no   SM         A      116.bmp           -120           -120               143950                  137924                 145969               139934         365367.0            359343.0           367386.0         361352.0     21
 4   0   0   0   1       13  test        1        1                z Fri Jan 10 2025 11:33:41 GMT-0500 (Eastern Standard Time) 379754.500000       I        z           1165       22              1   118.bmp        -120        -120   119.bmp         120        -120   120.bmp        -120         120   121.bmp         120         120  9227.299999 370527.200001       9007              yes   SM         A      121.bmp            120            120               143950                  137924                 145969               139934         374734.0            368706.0           376753.0         370719.0     22
 1   1   0   0   0       14  test        1        1                m Fri Jan 10 2025 11:33:41 GMT-0500 (Eastern Standard Time) 389420.900001       I        m           1614       23              1   134.bmp        -120        -120   135.bmp         120        -120   136.bmp        -120         120   137.bmp         120         120  9658.600000 379762.300000       9007               no   SM         A      137.bmp           -120           -120               143950                  137924                 145969               139934         383967.0            377942.0           385984.0         379953.0     23
 2   0   1   0   0       15  test        1        1                z Fri Jan 10 2025 11:33:41 GMT-0500 (Eastern Standard Time) 398754.600000       I        z           1275       24              1   142.bmp        -120        -120   143.bmp         120        -120   144.bmp        -120         120   145.bmp         120         120  9327.400000 389427.200001       9007              yes   SM         A      143.bmp            120           -120               143950                  137924                 145969               139934         393634.0            387606.0           395652.0         389619.0     24
 4   0   0   0   1       16  test        1        1                m Fri Jan 10 2025 11:33:41 GMT-0500 (Eastern Standard Time) 408337.900001       I        m           1524       25              1   146.bmp        -120        -120   147.bmp         120        -120   148.bmp        -120         120   149.bmp         120         120  9574.400001 398763.500000       9007               no   SM         A      148.bmp            120            120               143950                  137924                 145969               139934         402967.0            396943.0           404986.0         398952.0     25
 1   1   0   0   0       17  test        1        1                z Fri Jan 10 2025 11:33:41 GMT-0500 (Eastern Standard Time) 417771.200001       I        z           1366       26              1   138.bmp        -120        -120   139.bmp         120        -120   140.bmp        -120         120   141.bmp         120         120  9423.700001 408347.500000       9007              yes   SM         A      138.bmp           -120           -120               143950                  137924                 145969               139934         412550.0            406527.0           414569.0         408535.0     26
 4   0   0   0   1       18  test        1        1                z Fri Jan 10 2025 11:33:41 GMT-0500 (Eastern Standard Time) 426887.600000       I        z           1053       27              1   150.bmp        -120        -120   111.bmp         120        -120   101.bmp        -120         120   102.bmp         120         120  9102.700000 417784.900001       9007              yes   SM         A      102.bmp            120            120               143950                  137924                 145969               139934         421983.0            415964.0           424001.0         417969.0     27
 3   0   0   1   0       18  test        1        0                m Fri Jan 10 2025 11:33:41 GMT-0500 (Eastern Standard Time) 436954.400001       I     None           2013       28              1   103.bmp        -120        -120   104.bmp         120        -120   105.bmp        -120         120   106.bmp         120         120 10061.200000 426893.200001       9007               no   SM         A      103.bmp           -120            120               143950                  137924                 145969               139934         431100.0            425073.0           433120.0         427084.0     28
 2   0   1   0   0       19  test        1        1                z Fri Jan 10 2025 11:33:41 GMT-0500 (Eastern Standard Time) 446371.200001       I        z           1357       29              1   107.bmp        -120        -120   108.bmp         120        -120   109.bmp        -120         120   110.bmp         120         120  9408.200001 436963.000000       9007              yes   SM         A      108.bmp            120           -120               143950                  137924                 145969               139934         441167.0            435142.0           443186.0         437152.0     29
 3   0   0   1   0       20  test        1        1                z Fri Jan 10 2025 11:33:41 GMT-0500 (Eastern Standard Time) 455470.800000       I        z           1043       30              1   111.bmp        -120        -120   112.bmp         120        -120   113.bmp        -120         120   114.bmp         120         120  9093.099999 446377.700001       9007              yes   SM         A      113.bmp           -120            120               143950                  137924                 145969               139934         450584.0            444557.0           452603.0         446569.0     30
 1   1   0   0   0       21  test        1        1                z Fri Jan 10 2025 11:33:41 GMT-0500 (Eastern Standard Time) 464488.000000       I        z            954       31              1   115.bmp        -120        -120   116.bmp         120        -120   117.bmp        -120         120   118.bmp         120         120  9011.000000 455477.000000       9007              yes   SM         A      115.bmp           -120           -120               143950                  137924                 145969               139934         459683.0            453656.0           461701.0         455669.0     31
 2   0   1   0   0       21  test        1        0                m Fri Jan 10 2025 11:33:41 GMT-0500 (Eastern Standard Time) 473921.200001       I        z           1375       32              1   119.bmp        -120        -120   120.bmp         120        -120   121.bmp        -120         120   122.bmp         120         120  9424.200001 464497.000000       9007               no   SM         A      119.bmp            120           -120               143950                  137924                 145969               139934         468700.0            462677.0           470719.0         464686.0     32
 4   0   0   0   1       21  test        1        0                z Fri Jan 10 2025 11:33:41 GMT-0500 (Eastern Standard Time) 483987.800000       I     None           2014       33              1   131.bmp        -120        -120   132.bmp         120        -120   133.bmp        -120         120   134.bmp         120         120 10059.700000 473928.100000       9007              yes   SM         A      134.bmp            120            120               143950                  137924                 145969               139934         478134.0            472107.0           480153.0         474118.0     33
 2   0   1   0   0       22  test        1        1                z Fri Jan 10 2025 11:33:41 GMT-0500 (Eastern Standard Time) 492987.600000       I        z            930       34              1   123.bmp        -120        -120   124.bmp         120        -120   125.bmp        -120         120   126.bmp         120         120  8992.600000 483995.000000       9007              yes   SM         A      124.bmp            120           -120               143950                  137924                 145969               139934         488201.0            482174.0           490220.0         484186.0     34
 4   0   0   0   1       23  test        1        1                m Fri Jan 10 2025 11:33:41 GMT-0500 (Eastern Standard Time) 502454.600000       I        m           1406       35              1   127.bmp        -120        -120   128.bmp         120        -120   129.bmp        -120         120   130.bmp         120         120  9463.600000 492991.000000       9007               no   SM         A      129.bmp            120            120               143950                  137924                 145969               139934         497201.0            491170.0           499217.0         493186.0     35
 3   0   0   1   0       23  test        1        0                m Fri Jan 10 2025 11:33:41 GMT-0500 (Eastern Standard Time) 512504.600000       I        z           1985       36              1   135.bmp        -120        -120   136.bmp         120        -120   137.bmp        -120         120   138.bmp         120         120 10042.100000 502462.500000       9007               no   SM         A      135.bmp           -120            120               143950                  137924                 145969               139934         506668.0            500642.0           508686.0         502652.0     36
 1   1   0   0   0       23  test        1        0                m Fri Jan 10 2025 11:33:41 GMT-0500 (Eastern Standard Time) 522571.300000       I     None           2014       37              1   139.bmp        -120        -120   140.bmp         120        -120   141.bmp        -120         120   142.bmp         120         120 10059.200000 512512.100000       9007               no   SM         A      140.bmp           -120           -120               143950                  137924                 145969               139934         516717.0            510691.0           518736.0         512702.0     37
 2   0   1   0   0       24  test        1        1                m Fri Jan 10 2025 11:33:41 GMT-0500 (Eastern Standard Time) 532054.500000       I        m           1420       38              1   143.bmp        -120        -120   144.bmp         120        -120   145.bmp        -120         120   146.bmp         120         120  9475.099999 522579.400001       9007               no   SM         A      145.bmp            120           -120               143950                  137924                 145969               139934         526784.0            520759.0           528803.0         522769.0     38
 4   0   0   0   1       25  test        1        1                z Fri Jan 10 2025 11:33:41 GMT-0500 (Eastern Standard Time) 541221.400001       I        z           1105       39              1   147.bmp        -120        -120   148.bmp         120        -120   149.bmp        -120         120   150.bmp         120         120  9159.500000 532061.900001       9007              yes   SM         A      150.bmp            120            120               143950                  137924                 145969               139934         536267.0            530241.0           538286.0         532252.0     39
 3   0   0   1   0       25  test        1        0                m Fri Jan 10 2025 11:33:41 GMT-0500 (Eastern Standard Time) 551287.600000       I     None           2014       40              1   104.bmp        -120        -120   105.bmp         120        -120   106.bmp        -120         120   107.bmp         120         120 10059.300000 541228.300000       9007               no   SM         A      105.bmp           -120            120               143950                  137924                 145969               139934         545433.0            539407.0           547453.0         541420.0     40
 1   1   0   0   0       26  test        1        1                z Fri Jan 10 2025 11:33:41 GMT-0500 (Eastern Standard Time) 560221.100000       I        z            879       41              1   108.bmp        -120        -120   109.bmp         120        -120   110.bmp        -120         120   111.bmp         120         120  8925.500000 551295.600000       9007              yes   SM         A      108.bmp           -120           -120               143950                  137924                 145969               139934         555501.0            549475.0           557520.0         551485.0     41
 4   0   0   0   1       26  test        1        0                z Fri Jan 10 2025 11:33:41 GMT-0500 (Eastern Standard Time) 570271.300000       I        m           1994       42              1   112.bmp        -120        -120   113.bmp         120        -120   114.bmp        -120         120   115.bmp         120         120 10042.099999 560229.200001       9007              yes   SM         A      115.bmp            120            120               143950                  137924                 145969               139934         564434.0            558408.0           566453.0         560418.0     42
 1   1   0   0   0       26  test        1        0                z Fri Jan 10 2025 11:33:41 GMT-0500 (Eastern Standard Time) 580337.600000       I     None           2013       43              1   116.bmp        -120        -120   117.bmp         120        -120   118.bmp        -120         120   119.bmp         120         120 10057.600000 570280.000000       9007              yes   SM         A      116.bmp           -120           -120               143950                  137924                 145969               139934         574484.0            568459.0           576503.0         570469.0     43
 4   0   0   0   1       27  test        1        1                m Fri Jan 10 2025 11:33:41 GMT-0500 (Eastern Standard Time) 589570.700001       I        m           1173       44              1   104.bmp        -120        -120   101.bmp         120        -120   102.bmp        -120         120   103.bmp         120         120  9228.000000 580342.700001       9007               no   SM         A      104.bmp            120            120               143950                  137924                 145969               139934         584551.0            578522.0           586570.0         580534.0     44
 1   1   0   0   0       27  test        1        0                m Fri Jan 10 2025 11:33:41 GMT-0500 (Eastern Standard Time) 599637.900001       I     None           2014       45              1   128.bmp        -120        -120   129.bmp         120        -120   130.bmp        -120         120   131.bmp         120         120 10063.500000 589574.400001       9007               no   SM         A      131.bmp           -120           -120               143950                  137924                 145969               139934         593784.0            587754.0           595803.0         589769.0     45
 1   1   0   0   0       28  test        1        1                m Fri Jan 10 2025 11:33:41 GMT-0500 (Eastern Standard Time) 609338.100000       I        m           1635       46              1   120.bmp        -120        -120   121.bmp         120        -120   122.bmp        -120         120   123.bmp         120         120  9692.600000 599645.500000       9007               no   SM         A      121.bmp           -120           -120               143950                  137924                 145969               139934         603850.0            597825.0           605868.0         599836.0     46
 3   0   0   1   0       29  test        1        1                z Fri Jan 10 2025 11:33:41 GMT-0500 (Eastern Standard Time) 618354.600000       I        z            957       47              1   124.bmp        -120        -120   125.bmp         120        -120   126.bmp        -120         120   127.bmp         120         120  9006.700000 609347.900001       9007              yes   SM         A      126.bmp           -120            120               143950                  137924                 145969               139934         613551.0            607527.0           615570.0         609536.0     47
 3   0   0   1   0       30  test        1        1                z Fri Jan 10 2025 11:33:41 GMT-0500 (Eastern Standard Time) 627337.700001       I        z            916       48              1   140.bmp        -120        -120   141.bmp         120        -120   142.bmp        -120         120   143.bmp         120         120  8976.400001 618361.300000       9007              yes   SM         A      142.bmp           -120            120               143950                  137924                 145969               139934         622567.0            616541.0           624586.0         618552.0     48
 2   0   1   0   0       31  test        1        1                z Fri Jan 10 2025 11:33:41 GMT-0500 (Eastern Standard Time) 636771.400001       I        z           1375       49              1   136.bmp        -120        -120   137.bmp         120        -120   138.bmp        -120         120   139.bmp         120         120  9427.900001 627343.500000       9007              yes   SM         A      137.bmp            120           -120               143950                  137924                 145969               139934         631551.0            625523.0           633568.0         627535.0     49
 3   0   0   1   0       31  test        1        0                m Fri Jan 10 2025 11:33:41 GMT-0500 (Eastern Standard Time) 646821.500000       I     None           2013       50              1   132.bmp        -120        -120   133.bmp         120        -120   134.bmp        -120         120   135.bmp         120         120 10042.799999 636778.700001       9007               no   SM         A      132.bmp           -120            120               143950                  137924                 145969               139934         640983.0            634958.0           642987.0         636969.0     50
 2   0   1   0   0       32  test        1        1                z Fri Jan 10 2025 11:33:41 GMT-0500 (Eastern Standard Time) 656721.000000       I        z           1842       51              1   144.bmp        -120        -120   145.bmp         120        -120   146.bmp        -120         120   147.bmp         120         120  9892.700000 646828.300000       9007              yes   SM         A      145.bmp            120           -120               143950                  137924                 145969               139934         651034.0            645008.0           653053.0         647019.0     51
 4   0   0   0   1       33  test        1        1                m Fri Jan 10 2025 11:33:41 GMT-0500 (Eastern Standard Time) 666004.700001       I        m           1222       52              1   148.bmp        -120        -120   149.bmp         120        -120   150.bmp        -120         120   131.bmp         120         120  9279.600000 656725.100000       9007               no   SM         A      148.bmp            120            120               143950                  137924                 145969               139934         660934.0            654904.0           662953.0         656920.0     52
 3   0   0   1   0       34  test        1        1                z Fri Jan 10 2025 11:33:41 GMT-0500 (Eastern Standard Time) 674954.800000       I        z            882       53              1   101.bmp        -120        -120   102.bmp         120        -120   103.bmp        -120         120   104.bmp         120         120  8942.400000 666012.400001       9007              yes   SM         A      103.bmp           -120            120               143950                  137924                 145969               139934         670217.0            664192.0           672236.0         666203.0     53
 1   1   0   0   0       35  test        1        1                m Fri Jan 10 2025 11:33:41 GMT-0500 (Eastern Standard Time) 684471.600000       I        m           1453       54              1   105.bmp        -120        -120   106.bmp         120        -120   107.bmp        -120         120   108.bmp         120         120  9509.400000 674962.200001       9007               no   SM         A      107.bmp           -120           -120               143950                  137924                 145969               139934         679167.0            673142.0           681186.0         675152.0     54
 4   0   0   0   1       36  test        1        1                z Fri Jan 10 2025 11:33:41 GMT-0500 (Eastern Standard Time) 693771.300000       I        z           1232       55              1   109.bmp        -120        -120   110.bmp         120        -120   111.bmp        -120         120   112.bmp         120         120  9292.599999 684478.700001       9007              yes   SM         A      112.bmp            120            120               143950                  137924                 145969               139934         688684.0            682658.0           690703.0         684669.0     55
 2   0   1   0   0       36  test        1        0                m Fri Jan 10 2025 11:33:41 GMT-0500 (Eastern Standard Time) 703654.900001       I        z           1837       56              1   113.bmp        -120        -120   114.bmp         120        -120   115.bmp        -120         120   116.bmp         120         120  9875.600000 693779.300000       9007               no   SM         A      113.bmp            120           -120               143950                  137924                 145969               139934         697983.0            691959.0           699986.0         693969.0     56
 4   0   0   0   1       36  test        1        0                m Fri Jan 10 2025 11:33:41 GMT-0500 (Eastern Standard Time) 713238.200001       I        z           1521       57              1   117.bmp        -120        -120   118.bmp         120        -120   119.bmp        -120         120   120.bmp         120         120  9577.000000 703661.200001       9007               no   SM         A      118.bmp            120            120               143950                  137924                 145969               139934         707867.0            701841.0           709886.0         703852.0     57
 3   0   0   1   0       37  test        1        1                z Fri Jan 10 2025 11:33:41 GMT-0500 (Eastern Standard Time) 722921.400001       I        z           1618       58              1   121.bmp        -120        -120   122.bmp         120        -120   123.bmp        -120         120   124.bmp         120         120  9675.800000 713245.600000       9007              yes   SM         A      123.bmp           -120            120               143950                  137924                 145969               139934         717450.0            711425.0           719469.0         713436.0     58
 2   0   1   0   0       37  test        1        0                m Fri Jan 10 2025 11:33:41 GMT-0500 (Eastern Standard Time) 732988.000000       I     None           2014       59              1   125.bmp        -120        -120   126.bmp         120        -120   127.bmp        -120         120   128.bmp         120         120 10058.700000 722929.300000       9007               no   SM         A      128.bmp            120           -120               143950                  137924                 145969               139934         727134.0            721109.0           729153.0         723118.0     59
 1   1   0   0   0       38  test        1        1                z Fri Jan 10 2025 11:33:41 GMT-0500 (Eastern Standard Time) 742587.800000       I        z           1532       60              1   129.bmp        -120        -120   130.bmp         120        -120   131.bmp        -120         120   132.bmp         120         120  9592.500000 732995.300000       9007              yes   SM         A      129.bmp           -120           -120               143950                  137924                 145969               139934         737201.0            731175.0           739218.0         733186.0     60
 2   0   1   0   0       38  test        1        0                z Fri Jan 10 2025 11:33:41 GMT-0500 (Eastern Standard Time) 752654.700001       I     None           2014       61              1   133.bmp        -120        -120   134.bmp         120        -120   135.bmp        -120         120   136.bmp         120         120 10060.400001 742594.300000       9007              yes   SM         A      134.bmp            120           -120               143950                  137924                 145969               139934         746801.0            740774.0           748820.0         742785.0     61
 4   0   0   0   1       39  test        1        1                z Fri Jan 10 2025 11:33:41 GMT-0500 (Eastern Standard Time) 762004.900001       I        z           1289       62              1   141.bmp        -120        -120   142.bmp         120        -120   143.bmp        -120         120   144.bmp         120         120  9342.000000 752662.900001       9007              yes   SM         A      144.bmp            120            120               143950                  137924                 145969               139934         756867.0            750842.0           758886.0         752853.0     62
 1   1   0   0   0       40  test        1        1                m Fri Jan 10 2025 11:33:41 GMT-0500 (Eastern Standard Time) 771288.300000       I        m           1219       63              1   145.bmp        -120        -120   146.bmp         120        -120   147.bmp        -120         120   148.bmp         120         120  9276.400000 762011.900001       9007               no   SM         A      145.bmp           -120            120               143950                  137924                 145969               139934         766218.0            760191.0           768236.0         762203.0     63
 2   0   1   0   0       41  test        1        1                z Fri Jan 10 2025 11:33:41 GMT-0500 (Eastern Standard Time) 780654.800000       I        z           1311       64              1   149.bmp        -120        -120   150.bmp         120        -120   112.bmp        -120         120   101.bmp         120         120  9359.300000 771295.500000       9007              yes   SM         A      150.bmp            120           -120               143950                  137924                 145969               139934         775501.0            769475.0           777520.0         771486.0     64
 4   0   0   0   1       41  test        1        0                m Fri Jan 10 2025 11:33:41 GMT-0500 (Eastern Standard Time) 789888.200001       I        z           1177       65              1   102.bmp        -120        -120   103.bmp         120        -120   104.bmp        -120         120   105.bmp         120         120  9227.000000 780661.200001       9007               no   SM         A      104.bmp            120            120               143950                  137924                 145969               139934         784867.0            778840.0           786886.0         780853.0     65
 3   0   0   1   0       42  test        1        1                m Fri Jan 10 2025 11:33:41 GMT-0500 (Eastern Standard Time) 799438.100000       I        m           1495       66              1   106.bmp        -120        -120   107.bmp         120        -120   108.bmp        -120         120   109.bmp         120         120  9541.200000 789896.900001       9007               no   SM         A      109.bmp           -120            120               143950                  137924                 145969               139934         794101.0            788076.0           796120.0         790086.0     66
 2   0   1   0   0       43  test        1        1                m Fri Jan 10 2025 11:33:41 GMT-0500 (Eastern Standard Time) 809104.200001       I        m           1609       67              1   137.bmp        -120        -120   138.bmp         120        -120   139.bmp        -120         120   140.bmp         120         120  9657.500000 799446.700001       9007               no   SM         A      139.bmp            120           -120               143950                  137924                 145969               139934         803651.0            797626.0           805670.0         799635.0     67
 3   0   0   1   0       44  test        1        1                z Fri Jan 10 2025 11:33:41 GMT-0500 (Eastern Standard Time) 818354.900001       I        z           1190       68              1   110.bmp        -120        -120   111.bmp         120        -120   112.bmp        -120         120   113.bmp         120         120  9246.600000 809108.300000       9007              yes   SM         A      112.bmp           -120            120               143950                  137924                 145969               139934         813317.0            807288.0           815337.0         809302.0     68
 1   1   0   0   0       45  test        1        1                m Fri Jan 10 2025 11:33:41 GMT-0500 (Eastern Standard Time) 827688.100000       I        m           1268       69              1   114.bmp        -120        -120   115.bmp         120        -120   116.bmp        -120         120   117.bmp         120         120  9326.700000 818361.400001       9007               no   SM         A      115.bmp           -120           -120               143950                  137924                 145969               139934         822567.0            816541.0           824586.0         818553.0     69
 2   0   1   0   0       45  test        1        0                m Fri Jan 10 2025 11:33:41 GMT-0500 (Eastern Standard Time) 837755.100000       I     None           2014       70              1   118.bmp        -120        -120   119.bmp         120        -120   120.bmp        -120         120   121.bmp         120         120 10059.300000 827695.800000       9007               no   SM         A      120.bmp            120           -120               143950                  137924                 145969               139934         831901.0            825875.0           833920.0         827886.0     70
 4   0   0   0   1       46  test        1        1                z Fri Jan 10 2025 11:33:41 GMT-0500 (Eastern Standard Time) 847054.900001       I        z           1246       71              1   122.bmp        -120        -120   123.bmp         120        -120   124.bmp        -120         120   125.bmp         120         120  9291.000000 837763.900001       9007              yes   SM         A      125.bmp            120            120               143950                  137924                 145969               139934         841967.0            835943.0           843985.0         837953.0     71
 1   1   0   0   0       47  test        1        1                z Fri Jan 10 2025 11:33:41 GMT-0500 (Eastern Standard Time) 856821.700001       I        z           1706       72              1   126.bmp        -120        -120   127.bmp         120        -120   128.bmp        -120         120   129.bmp         120         120  9760.200001 847061.500000       9007              yes   SM         A      126.bmp           -120           -120               143950                  137924                 145969               139934         851268.0            845241.0           853285.0         847253.0     72
 2   0   1   0   0       47  test        1        0                z Fri Jan 10 2025 11:33:41 GMT-0500 (Eastern Standard Time) 866888.100000       I     None           2013       73              1   130.bmp        -120        -120   131.bmp         120        -120   132.bmp        -120         120   133.bmp         120         120 10057.500000 856830.600000       9007              yes   SM         A      131.bmp            120           -120               143950                  137924                 145969               139934         861034.0            855010.0           863054.0         857019.0     73
 4   0   0   0   1       47  test        1        0                m Fri Jan 10 2025 11:33:41 GMT-0500 (Eastern Standard Time) 876638.100000       I        z           1695       74              1   134.bmp        -120        -120   135.bmp         120        -120   136.bmp        -120         120   137.bmp         120         120  9741.500000 866896.600000       9007               no   SM         A      136.bmp            120            120               143950                  137924                 145969               139934         871101.0            865076.0           873120.0         867086.0     74
 2   0   1   0   0       47  test        1        0                m Fri Jan 10 2025 11:33:41 GMT-0500 (Eastern Standard Time) 886705.000000       I     None           2014       75              1   138.bmp        -120        -120   139.bmp         120        -120   140.bmp        -120         120   141.bmp         120         120 10059.799999 876645.200001       9007               no   SM         A      141.bmp            120           -120               143950                  137924                 145969               139934         880851.0            874824.0           882870.0         876836.0     75
 1   1   0   0   0       48  test        1        1                z Fri Jan 10 2025 11:33:41 GMT-0500 (Eastern Standard Time) 895904.500000       I        z           1141       76              1   142.bmp        -120        -120   143.bmp         120        -120   144.bmp        -120         120   145.bmp         120         120  9190.900000 886713.600000       9007              yes   SM         A      142.bmp           -120           -120               143950                  137924                 145969               139934         890918.0            884893.0           892937.0         886902.0     76
 3   0   0   1   0       48  test        1        0                z Fri Jan 10 2025 11:33:41 GMT-0500 (Eastern Standard Time) 905971.800000       I     None           2014       77              1   150.bmp        -120        -120   111.bmp         120        -120   101.bmp        -120         120   102.bmp         120         120 10063.500000 895908.300000       9007              yes   SM         A      101.bmp           -120            120               143950                  137924                 145969               139934         900118.0            894088.0           902137.0         896103.0     77
 1   1   0   0   0       49  test        1        1                m Fri Jan 10 2025 11:33:41 GMT-0500 (Eastern Standard Time) 915338.500000       I        m           1317       78              1   146.bmp        -120        -120   147.bmp         120        -120   148.bmp        -120         120   149.bmp         120         120  9359.799999 905978.700001       9007               no   SM         A      147.bmp           -120           -120               143950                  137924                 145969               139934         910184.0            904158.0           912186.0         906169.0     78
 4   0   0   0   1       49  test        1        0                m Fri Jan 10 2025 11:33:41 GMT-0500 (Eastern Standard Time) 925421.400001       I     None           2013       79              1   107.bmp        -120        -120   108.bmp         120        -120   109.bmp        -120         120   110.bmp         120         120 10066.900001 915354.500000       9007               no   SM         A      107.bmp            120            120               143950                  137924                 145969               139934         919568.0            913534.0           921587.0         915553.0     79
 3   0   0   1   0       50  test        1        1                m Fri Jan 10 2025 11:33:41 GMT-0500 (Eastern Standard Time) 934705.000000       I        m           1226       80              1   103.bmp        -120        -120   104.bmp         120        -120   105.bmp        -120         120   106.bmp         120         120  9278.099999 925426.900001       9007               no   SM         A      106.bmp           -120            120               143950                  137924                 145969               139934         929634.0            923606.0           931653.0         925618.0     80