Q,Q1,Q2,Q3,Q4,acc_sum,block,block_c,correct,correct_response,datetime,endtime,project,response,response_time,row_sel,session_number,squiggle1,squiggle1x,squiggle1y,squiggle2,squiggle2x,squiggle2y,squiggle3,squiggle3x,squiggle3y,squiggle4,squiggle4x,squiggle4y,start_end,starttime,subject_id,target_congruent,task,task_vers,testsquiggle,testsquigglex,testsquiggley,time_practice_delay,time_practice_fixation,time_practice_stimuli,time_practice_study,time_test_delay,time_test_fixation,time_test_stimuli,time_test_study,trial
1,1,0,0,0,1,prac,1,1,z,Tue Sep 03 2024 10:16:48 GMT-0500 (Central Daylight Time),181354.5,O,z,998,1,1,16.bmp,-120,-120,17.bmp,120,-120,18.bmp,-120,120,19.bmp,120,120,9808.799999952316,171545.70000004768,7016,yes,SM,B,16.bmp,-120,-120,170328,164302,172344,166313,,,,,1
3,0,0,1,0,1,prac,1,0,m,Tue Sep 03 2024 10:16:48 GMT-0500 (Central Daylight Time),192185.5,O,None,2015,2,1,20.bmp,-120,-120,21.bmp,120,-120,22.bmp,-120,120,23.bmp,120,120,10827.099999964237,181358.40000003576,7016,no,SM,B,23.bmp,-120,120,180142,174115,182158,176127,,,,,2
4,0,0,0,1,2,prac,1,1,m,Tue Sep 03 2024 10:16:48 GMT-0500 (Central Daylight Time),202564.20000004768,O,m,1562,3,1,24.bmp,-120,-120,25.bmp,120,-120,26.bmp,-120,120,27.bmp,120,120,10374.900000035763,192189.30000001192,7016,no,SM,B,24.bmp,120,120,190972,184946,192988,186957,,,,,3
2,0,1,0,0,2,prac,1,0,z,Tue Sep 03 2024 10:16:48 GMT-0500 (Central Daylight Time),213394.20000004768,O,None,2017,4,1,28.bmp,-120,-120,29.bmp,120,-120,30.bmp,-120,120,31.bmp,120,120,10825.600000023842,202568.60000002384,7016,yes,SM,B,29.bmp,120,-120,201352,195325,203368,197337,,,,,4
3,0,0,1,0,3,prac,1,1,z,Tue Sep 03 2024 10:16:48 GMT-0500 (Central Daylight Time),223557.5,O,z,1336,5,1,32.bmp,-120,-120,33.bmp,120,-120,34.bmp,-120,120,35.bmp,120,120,10159.699999988079,213397.80000001192,7016,yes,SM,B,34.bmp,-120,120,212182,206154,214198,208166,,,,,5
1,1,0,0,0,4,prac,1,1,m,Tue Sep 03 2024 10:16:48 GMT-0500 (Central Daylight Time),234021.20000004768,O,m,1637,6,1,36.bmp,-120,-120,37.bmp,120,-120,38.bmp,-120,120,39.bmp,120,120,10459.900000035763,223561.30000001192,7016,no,SM,B,39.bmp,-120,-120,222345,216317,224361,218330,,,,,6
2,0,1,0,0,5,prac,1,1,m,Tue Sep 03 2024 10:16:48 GMT-0500 (Central Daylight Time),244251.30000001192,O,m,1412,7,1,40.bmp,-120,-120,41.bmp,120,-120,42.bmp,-120,120,43.bmp,120,120,10226.899999976158,234024.40000003576,7016,no,SM,B,40.bmp,120,-120,232809,226781,234826,228794,,,,,7
4,0,0,0,1,5,prac,1,0,z,Tue Sep 03 2024 10:16:48 GMT-0500 (Central Daylight Time),255081.10000002384,O,None,2016,8,1,44.bmp,-120,-120,45.bmp,120,-120,46.bmp,-120,120,47.bmp,120,120,10826.600000023842,244254.5,7016,yes,SM,B,47.bmp,120,120,243039,237011,245055,239024,,,,,8
4,0,0,0,1,0,test,1,0,m,Tue Sep 03 2024 10:16:48 GMT-0500 (Central Daylight Time),300616.90000003576,O,z,1159,1,1,48.bmp,-120,-120,49.bmp,120,-120,50.bmp,-120,120,43.bmp,120,120,9211.199999988079,291405.7000000477,7016,yes,SM,B,50.bmp,120,120,243039,237011,245055,239024,290191.0,284162.0,292207.0,286175.0,1
2,0,1,0,0,1,test,1,1,m,Tue Sep 03 2024 10:16:48 GMT-0500 (Central Daylight Time),310147.3000000119,O,m,1473,2,1,1.bmp,-120,-120,2.bmp,120,-120,3.bmp,-120,120,4.bmp,120,120,9527.099999964237,300620.2000000477,7016,yes,SM,B,3.bmp,120,-120,243039,237011,245055,239024,299404.0,293376.0,301421.0,295389.0,2
1,1,0,0,0,2,test,1,1,z,Tue Sep 03 2024 10:16:48 GMT-0500 (Central Daylight Time),319427.5,O,z,1231,3,1,5.bmp,-120,-120,6.bmp,120,-120,7.bmp,-120,120,8.bmp,120,120,9277.199999988079,310150.3000000119,7016,yes,SM,B,5.bmp,-120,-120,243039,237011,245055,239024,308935.0,302907.0,310951.0,304920.0,3
3,0,0,1,0,2,test,1,0,m,Tue Sep 03 2024 10:16:48 GMT-0500 (Central Daylight Time),328924.7000000477,O,z,1446,4,1,9.bmp,-120,-120,10.bmp,120,-120,11.bmp,-120,120,12.bmp,120,120,9494.0,319430.7000000477,7016,yes,SM,B,9.bmp,-120,120,243039,237011,245055,239024,318215.0,312187.0,320231.0,314200.0,4
2,0,1,0,0,3,test,1,1,z,Tue Sep 03 2024 10:16:48 GMT-0500 (Central Daylight Time),338354.7000000477,O,z,1382,5,1,13.bmp,-120,-120,14.bmp,120,-120,15.bmp,-120,120,16.bmp,120,120,9426.900000035763,328927.8000000119,7016,yes,SM,B,14.bmp,120,-120,243039,237011,245055,239024,327712.0,321684.0,329728.0,323697.0,5
3,0,0,1,0,4,test,1,1,z,Tue Sep 03 2024 10:16:48 GMT-0500 (Central Daylight Time),347735.5,O,z,1328,6,1,17.bmp,-120,-120,18.bmp,120,-120,19.bmp,-120,120,20.bmp,120,120,9377.599999964237,338357.90000003576,7016,yes,SM,B,19.bmp,-120,120,243039,237011,245055,239024,337142.0,331114.0,339159.0,333127.0,6
4,0,0,0,1,5,test,1,1,z,Tue Sep 03 2024 10:16:48 GMT-0500 (Central Daylight Time),357349.10000002384,O,z,1555,7,1,21.bmp,-120,-120,22.bmp,120,-120,23.bmp,-120,120,24.bmp,120,120,9610.5,347738.60000002384,7016,yes,SM,B,24.bmp,120,120,243039,237011,245055,239024,346523.0,340495.0,348539.0,342508.0,7
2,0,1,0,0,6,test,1,1,m,Tue Sep 03 2024 10:16:48 GMT-0500 (Central Daylight Time),366762.7000000477,O,m,1357,8,1,25.bmp,-120,-120,26.bmp,120,-120,27.bmp,-120,120,28.bmp,120,120,9409.900000035763,357352.8000000119,7016,yes,SM,B,25.bmp,120,-120,243039,237011,245055,239024,356137.0,350109.0,358153.0,352121.0,8
3,0,0,1,0,7,test,1,1,m,Tue Sep 03 2024 10:16:48 GMT-0500 (Central Daylight Time),376259.60000002384,O,m,1440,9,1,29.bmp,-120,-120,30.bmp,120,-120,31.bmp,-120,120,32.bmp,120,120,9493.699999988079,366765.90000003576,7016,yes,SM,B,30.bmp,-120,120,243039,237011,245055,239024,365550.0,359522.0,367566.0,361535.0,9
4,0,0,0,1,8,test,1,1,z,Tue Sep 03 2024 10:16:48 GMT-0500 (Central Daylight Time),385623.2000000477,O,z,1310,10,1,37.bmp,-120,-120,38.bmp,120,-120,39.bmp,-120,120,40.bmp,120,120,9360.300000011921,376262.90000003576,7016,yes,SM,B,40.bmp,120,120,243039,237011,245055,239024,375047.0,369019.0,377064.0,371032.0,10
3,0,0,1,0,9,test,1,1,z,Tue Sep 03 2024 10:16:48 GMT-0500 (Central Daylight Time),395220.40000003576,O,z,1539,11,1,33.bmp,-120,-120,34.bmp,120,-120,35.bmp,-120,120,36.bmp,120,120,9593.5,385626.90000003576,7016,yes,SM,B,35.bmp,-120,120,243039,237011,245055,239024,384411.0,378383.0,386427.0,380396.0,11
2,0,1,0,0,10,test,1,1,m,Tue Sep 03 2024 10:16:48 GMT-0500 (Central Daylight Time),404750.8000000119,O,m,1470,12,1,41.bmp,-120,-120,42.bmp,120,-120,43.bmp,-120,120,44.bmp,120,120,9526.099999964237,395224.7000000477,7016,yes,SM,B,41.bmp,120,-120,243039,237011,245055,239024,394008.0,387981.0,396024.0,389993.0,12
3,0,0,1,0,11,test,1,1,m,Tue Sep 03 2024 10:16:48 GMT-0500 (Central Daylight Time),414264.5,O,m,1459,13,1,45.bmp,-120,-120,46.bmp,120,-120,47.bmp,-120,120,48.bmp,120,120,9510.5,404754.0,7016,yes,SM,B,46.bmp,-120,120,243039,237011,245055,239024,403538.0,397510.0,405555.0,399523.0,13
1,1,0,0,0,12,test,1,1,z,Tue Sep 03 2024 10:16:48 GMT-0500 (Central Daylight Time),424277.7000000477,O,z,1962,14,1,49.bmp,-120,-120,50.bmp,120,-120,4.bmp,-120,120,1.bmp,120,120,10009.800000011921,414267.90000003576,7016,yes,SM,B,49.bmp,-120,-120,243039,237011,245055,239024,413052.0,407024.0,415068.0,409037.0,14
4,0,0,0,1,13,test,1,1,m,Tue Sep 03 2024 10:16:48 GMT-0500 (Central Daylight Time),433874.8000000119,O,m,1540,15,1,10.bmp,-120,-120,11.bmp,120,-120,12.bmp,-120,120,13.bmp,120,120,9593.899999976158,424280.90000003576,7016,yes,SM,B,11.bmp,120,120,243039,237011,245055,239024,423065.0,417037.0,425082.0,419050.0,15
1,1,0,0,0,14,test,1,1,m,Tue Sep 03 2024 10:16:48 GMT-0500 (Central Daylight Time),443255.40000003576,O,m,1320,16,1,2.bmp,-120,-120,3.bmp,120,-120,4.bmp,-120,120,5.bmp,120,120,9377.0,433878.40000003576,7016,yes,SM,B,5.bmp,-120,-120,243039,237011,245055,239024,432662.0,426635.0,434678.0,428647.0,16
3,0,0,1,0,14,test,1,0,m,Tue Sep 03 2024 10:16:48 GMT-0500 (Central Daylight Time),452702.3000000119,O,z,1378,17,1,22.bmp,-120,-120,23.bmp,120,-120,24.bmp,-120,120,25.bmp,120,120,9443.300000011921,443259.0,7016,yes,SM,B,22.bmp,-120,120,243039,237011,245055,239024,442071.0,436015.0,444076.0,438027.0,17
1,1,0,0,0,15,test,1,1,z,Tue Sep 03 2024 10:16:48 GMT-0500 (Central Daylight Time),462565.90000003576,O,z,1812,18,1,6.bmp,-120,-120,7.bmp,120,-120,8.bmp,-120,120,9.bmp,120,120,9860.400000035763,452705.5,7016,yes,SM,B,6.bmp,-120,-120,243039,237011,245055,239024,451490.0,445462.0,453506.0,447475.0,18
2,0,1,0,0,16,test,1,1,z,Tue Sep 03 2024 10:16:48 GMT-0500 (Central Daylight Time),472162.90000003576,O,z,1532,19,1,26.bmp,-120,-120,27.bmp,120,-120,28.bmp,-120,120,29.bmp,120,120,9593.0,462569.90000003576,7016,yes,SM,B,27.bmp,120,-120,243039,237011,245055,239024,461353.0,455326.0,463371.0,457338.0,19
3,0,0,1,0,17,test,1,1,z,Tue Sep 03 2024 10:16:48 GMT-0500 (Central Daylight Time),481844.2000000477,O,z,1631,20,1,30.bmp,-120,-120,31.bmp,120,-120,32.bmp,-120,120,33.bmp,120,120,9677.900000035763,472166.3000000119,7016,yes,SM,B,32.bmp,-120,120,243039,237011,245055,239024,470951.0,464923.0,472967.0,466935.0,20
1,1,0,0,0,18,test,1,1,m,Tue Sep 03 2024 10:16:48 GMT-0500 (Central Daylight Time),491623.3000000119,O,m,1727,21,1,14.bmp,-120,-120,15.bmp,120,-120,16.bmp,-120,120,17.bmp,120,120,9776.099999964237,481847.2000000477,7016,yes,SM,B,16.bmp,-120,-120,243039,237011,245055,239024,480631.0,474603.0,482647.0,476616.0,21
4,0,0,0,1,19,test,1,1,z,Tue Sep 03 2024 10:16:48 GMT-0500 (Central Daylight Time),500837.3000000119,O,z,1155,22,1,18.bmp,-120,-120,19.bmp,120,-120,20.bmp,-120,120,21.bmp,120,120,9211.199999988079,491626.10000002384,7016,yes,SM,B,21.bmp,120,120,243039,237011,245055,239024,490411.0,484382.0,492427.0,486396.0,22
1,1,0,0,0,20,test,1,1,m,Tue Sep 03 2024 10:16:48 GMT-0500 (Central Daylight Time),510184.2000000477,O,m,1293,23,1,34.bmp,-120,-120,35.bmp,120,-120,36.bmp,-120,120,37.bmp,120,120,9343.600000023842,500840.60000002384,7016,yes,SM,B,37.bmp,-120,-120,243039,237011,245055,239024,499625.0,493597.0,501641.0,495610.0,23
2,0,1,0,0,20,test,1,0,z,Tue Sep 03 2024 10:16:48 GMT-0500 (Central Daylight Time),520247.60000002384,O,None,2016,24,1,42.bmp,-120,-120,43.bmp,120,-120,44.bmp,-120,120,45.bmp,120,120,10060.5,510187.10000002384,7016,yes,SM,B,43.bmp,120,-120,243039,237011,245055,239024,508972.0,502943.0,510988.0,504957.0,24
4,0,0,0,1,21,test,1,1,m,Tue Sep 03 2024 10:16:48 GMT-0500 (Central Daylight Time),529477.9000000358,O,m,1178,25,1,46.bmp,-120,-120,47.bmp,120,-120,48.bmp,-120,120,49.bmp,120,120,9227.400000035763,520250.5,7016,yes,SM,B,48.bmp,120,120,243039,237011,245055,239024,519035.0,513007.0,521052.0,515022.0,25
1,1,0,0,0,22,test,1,1,z,Tue Sep 03 2024 10:16:48 GMT-0500 (Central Daylight Time),538758.7000000477,O,z,1228,26,1,38.bmp,-120,-120,39.bmp,120,-120,40.bmp,-120,120,41.bmp,120,120,9278.0,529480.7000000477,7016,yes,SM,B,38.bmp,-120,-120,243039,237011,245055,239024,528266.0,522237.0,530282.0,524251.0,26
4,0,0,0,1,23,test,1,1,z,Tue Sep 03 2024 10:16:48 GMT-0500 (Central Daylight Time),547739.2000000477,O,z,923,27,1,50.bmp,-120,-120,11.bmp,120,-120,1.bmp,-120,120,2.bmp,120,120,8977.100000023842,538762.1000000238,7016,yes,SM,B,2.bmp,120,120,243039,237011,245055,239024,537546.0,531518.0,539563.0,533532.0,27
3,0,0,1,0,23,test,1,0,m,Tue Sep 03 2024 10:16:48 GMT-0500 (Central Daylight Time),557452.8000000119,O,z,1655,28,1,3.bmp,-120,-120,4.bmp,120,-120,5.bmp,-120,120,6.bmp,120,120,9710.5,547742.3000000119,7016,yes,SM,B,3.bmp,-120,120,243039,237011,245055,239024,546528.0,540499.0,548543.0,542512.0,28
2,0,1,0,0,24,test,1,1,z,Tue Sep 03 2024 10:16:48 GMT-0500 (Central Daylight Time),566466.3000000119,O,z,965,29,1,7.bmp,-120,-120,8.bmp,120,-120,9.bmp,-120,120,10.bmp,120,120,9009.5,557456.8000000119,7016,yes,SM,B,8.bmp,120,-120,243039,237011,245055,239024,556240.0,550213.0,558257.0,552225.0,29
3,0,0,1,0,25,test,1,1,z,Tue Sep 03 2024 10:16:48 GMT-0500 (Central Daylight Time),575913.8000000119,O,z,1384,30,1,11.bmp,-120,-120,12.bmp,120,-120,13.bmp,-120,120,14.bmp,120,120,9444.599999964237,566469.2000000477,7016,yes,SM,B,13.bmp,-120,120,243039,237011,245055,239024,565254.0,559225.0,567270.0,561239.0,30
1,1,0,0,0,25,test,1,0,z,Tue Sep 03 2024 10:16:48 GMT-0500 (Central Daylight Time),585977.2000000477,O,None,2015,31,1,15.bmp,-120,-120,16.bmp,120,-120,17.bmp,-120,120,18.bmp,120,120,10060.400000035763,575916.8000000119,7016,yes,SM,B,15.bmp,-120,-120,243039,237011,245055,239024,574701.0,568673.0,576718.0,570686.0,31
2,0,1,0,0,25,test,1,0,m,Tue Sep 03 2024 10:16:48 GMT-0500 (Central Daylight Time),596040.8000000119,O,None,2016,32,1,19.bmp,-120,-120,20.bmp,120,-120,21.bmp,-120,120,22.bmp,120,120,10060.599999964237,585980.2000000477,7016,yes,SM,B,19.bmp,120,-120,243039,237011,245055,239024,584765.0,578736.0,586781.0,580749.0,32
4,0,0,0,1,26,test,1,1,z,Tue Sep 03 2024 10:16:48 GMT-0500 (Central Daylight Time),605221.0,O,z,1130,33,1,31.bmp,-120,-120,32.bmp,120,-120,33.bmp,-120,120,34.bmp,120,120,9176.5,596044.5,7016,yes,SM,B,34.bmp,120,120,243039,237011,245055,239024,594828.0,588801.0,596844.0,590813.0,33
2,0,1,0,0,27,test,1,1,z,Tue Sep 03 2024 10:16:48 GMT-0500 (Central Daylight Time),614268.0,O,z,989,34,1,23.bmp,-120,-120,24.bmp,120,-120,25.bmp,-120,120,26.bmp,120,120,9043.799999952316,605224.2000000477,7016,yes,SM,B,24.bmp,120,-120,243039,237011,245055,239024,604008.0,597980.0,606025.0,599993.0,34
4,0,0,0,1,28,test,1,1,m,Tue Sep 03 2024 10:16:48 GMT-0500 (Central Daylight Time),623748.3000000119,O,m,1430,35,1,27.bmp,-120,-120,28.bmp,120,-120,29.bmp,-120,120,30.bmp,120,120,9476.300000011921,614272.0,7016,yes,SM,B,29.bmp,120,120,243039,237011,245055,239024,613055.0,607028.0,615072.0,609040.0,35
3,0,0,1,0,29,test,1,1,m,Tue Sep 03 2024 10:16:48 GMT-0500 (Central Daylight Time),632879.2000000477,O,m,1078,36,1,35.bmp,-120,-120,36.bmp,120,-120,37.bmp,-120,120,38.bmp,120,120,9127.600000023842,623751.6000000238,7016,yes,SM,B,35.bmp,-120,120,243039,237011,245055,239024,622536.0,616508.0,624552.0,618521.0,36
1,1,0,0,0,30,test,1,1,m,Tue Sep 03 2024 10:16:48 GMT-0500 (Central Daylight Time),642175.9000000358,O,m,1243,37,1,39.bmp,-120,-120,40.bmp,120,-120,41.bmp,-120,120,42.bmp,120,120,9293.5,632882.4000000358,7016,yes,SM,B,40.bmp,-120,-120,243039,237011,245055,239024,631666.0,625639.0,633683.0,627651.0,37
2,0,1,0,0,31,test,1,1,m,Tue Sep 03 2024 10:16:48 GMT-0500 (Central Daylight Time),651473.0,O,m,1234,38,1,43.bmp,-120,-120,44.bmp,120,-120,45.bmp,-120,120,46.bmp,120,120,9294.0,642179.0,7016,yes,SM,B,45.bmp,120,-120,243039,237011,245055,239024,640964.0,634935.0,642980.0,636948.0,38
4,0,0,0,1,32,test,1,1,z,Tue Sep 03 2024 10:16:48 GMT-0500 (Central Daylight Time),661300.3000000119,O,z,1631,39,1,47.bmp,-120,-120,48.bmp,120,-120,49.bmp,-120,120,50.bmp,120,120,9824.300000011921,651476.0,7016,yes,SM,B,50.bmp,120,120,243039,237011,245055,239024,650261.0,644232.0,652277.0,646245.0,39
3,0,0,1,0,33,test,1,1,m,Tue Sep 03 2024 10:16:48 GMT-0500 (Central Daylight Time),670716.8000000119,O,m,1355,40,1,4.bmp,-120,-120,5.bmp,120,-120,6.bmp,-120,120,7.bmp,120,120,9410.099999964237,661306.7000000477,7016,yes,SM,B,5.bmp,-120,120,243039,237011,245055,239024,660091.0,654063.0,662107.0,656076.0,40
1,1,0,0,0,34,test,1,1,z,Tue Sep 03 2024 10:16:48 GMT-0500 (Central Daylight Time),679947.3000000119,O,z,1181,41,1,8.bmp,-120,-120,9.bmp,120,-120,10.bmp,-120,120,11.bmp,120,120,9227.0,670720.3000000119,7016,yes,SM,B,8.bmp,-120,-120,243039,237011,245055,239024,669504.0,663477.0,671521.0,665489.0,41
4,0,0,0,1,35,test,1,1,z,Tue Sep 03 2024 10:16:48 GMT-0500 (Central Daylight Time),689094.5,O,z,1087,42,1,12.bmp,-120,-120,13.bmp,120,-120,14.bmp,-120,120,15.bmp,120,120,9143.5,679951.0,7016,yes,SM,B,15.bmp,120,120,243039,237011,245055,239024,678735.0,672707.0,680751.0,674720.0,42
1,1,0,0,0,36,test,1,1,z,Tue Sep 03 2024 10:16:48 GMT-0500 (Central Daylight Time),697975.2000000477,O,z,828,43,1,16.bmp,-120,-120,17.bmp,120,-120,18.bmp,-120,120,19.bmp,120,120,8877.900000035763,689097.3000000119,7016,yes,SM,B,16.bmp,-120,-120,243039,237011,245055,239024,687882.0,681854.0,689898.0,683867.0,43
4,0,0,0,1,37,test,1,1,m,Tue Sep 03 2024 10:16:48 GMT-0500 (Central Daylight Time),707322.3000000119,O,m,1283,44,1,4.bmp,-120,-120,1.bmp,120,-120,2.bmp,-120,120,3.bmp,120,120,9344.199999988079,697978.1000000238,7016,yes,SM,B,4.bmp,120,120,243039,237011,245055,239024,696763.0,690734.0,698779.0,692748.0,44
1,1,0,0,0,38,test,1,1,m,Tue Sep 03 2024 10:16:48 GMT-0500 (Central Daylight Time),716452.8000000119,O,m,1072,45,1,28.bmp,-120,-120,29.bmp,120,-120,30.bmp,-120,120,31.bmp,120,120,9126.899999976158,707325.9000000358,7016,yes,SM,B,31.bmp,-120,-120,243039,237011,245055,239024,706110.0,700082.0,708126.0,702094.0,45
1,1,0,0,0,39,test,1,1,m,Tue Sep 03 2024 10:16:48 GMT-0500 (Central Daylight Time),725699.8000000119,O,m,1189,46,1,20.bmp,-120,-120,21.bmp,120,-120,22.bmp,-120,120,23.bmp,120,120,9244.0,716455.8000000119,7016,yes,SM,B,21.bmp,-120,-120,243039,237011,245055,239024,715241.0,709212.0,717257.0,711225.0,46
3,0,0,1,0,40,test,1,1,z,Tue Sep 03 2024 10:16:48 GMT-0500 (Central Daylight Time),735263.4000000358,O,z,1444,47,1,24.bmp,-120,-120,25.bmp,120,-120,26.bmp,-120,120,27.bmp,120,120,9560.300000011921,725703.1000000238,7016,yes,SM,B,26.bmp,-120,120,243039,237011,245055,239024,724566.0,718459.0,726570.0,720472.0,47
3,0,0,1,0,41,test,1,1,z,Tue Sep 03 2024 10:16:48 GMT-0500 (Central Daylight Time),744560.6000000238,O,z,1243,48,1,40.bmp,-120,-120,41.bmp,120,-120,42.bmp,-120,120,43.bmp,120,120,9293.699999988079,735266.9000000358,7016,yes,SM,B,42.bmp,-120,120,243039,237011,245055,239024,734051.0,728023.0,736067.0,730036.0,48
2,0,1,0,0,42,test,1,1,z,Tue Sep 03 2024 10:16:48 GMT-0500 (Central Daylight Time),754474.0,O,z,1858,49,1,36.bmp,-120,-120,37.bmp,120,-120,38.bmp,-120,120,39.bmp,120,120,9906.199999988079,744567.8000000119,7016,yes,SM,B,37.bmp,120,-120,243039,237011,245055,239024,743348.0,737324.0,745364.0,739333.0,49
3,0,0,1,0,43,test,1,1,m,Tue Sep 03 2024 10:16:48 GMT-0500 (Central Daylight Time),764171.1000000238,O,m,1640,50,1,32.bmp,-120,-120,33.bmp,120,-120,34.bmp,-120,120,35.bmp,120,120,9694.300000011921,754476.8000000119,7016,yes,SM,B,32.bmp,-120,120,243039,237011,245055,239024,753262.0,747233.0,755278.0,749247.0,50
2,0,1,0,0,44,test,1,1,z,Tue Sep 03 2024 10:16:48 GMT-0500 (Central Daylight Time),773535.1000000238,O,z,1311,51,1,44.bmp,-120,-120,45.bmp,120,-120,46.bmp,-120,120,47.bmp,120,120,9361.100000023842,764174.0,7016,yes,SM,B,45.bmp,120,-120,243039,237011,245055,239024,762959.0,756930.0,764975.0,758944.0,51
4,0,0,0,1,45,test,1,1,m,Tue Sep 03 2024 10:16:48 GMT-0500 (Central Daylight Time),782698.7000000477,O,m,1108,52,1,48.bmp,-120,-120,49.bmp,120,-120,50.bmp,-120,120,31.bmp,120,120,9160.900000035763,773537.8000000119,7016,yes,SM,B,48.bmp,120,120,243039,237011,245055,239024,772322.0,766294.0,774338.0,768307.0,52
3,0,0,1,0,46,test,1,1,z,Tue Sep 03 2024 10:16:48 GMT-0500 (Central Daylight Time),791762.7000000477,O,z,1001,53,1,1.bmp,-120,-120,2.bmp,120,-120,3.bmp,-120,120,4.bmp,120,120,9061.200000047684,782701.5,7016,yes,SM,B,3.bmp,-120,120,243039,237011,245055,239024,781486.0,775458.0,783502.0,777471.0,53
1,1,0,0,0,46,test,1,0,m,Tue Sep 03 2024 10:16:48 GMT-0500 (Central Daylight Time),800876.3000000119,O,z,1064,54,1,5.bmp,-120,-120,6.bmp,120,-120,7.bmp,-120,120,8.bmp,120,120,9110.199999988079,791766.1000000238,7016,yes,SM,B,7.bmp,-120,-120,243039,237011,245055,239024,790550.0,784522.0,792566.0,786535.0,54
4,0,0,0,1,47,test,1,1,z,Tue Sep 03 2024 10:16:48 GMT-0500 (Central Daylight Time),810123.4000000358,O,z,1190,55,1,9.bmp,-120,-120,10.bmp,120,-120,11.bmp,-120,120,12.bmp,120,120,9244.300000011921,800879.1000000238,7016,yes,SM,B,12.bmp,120,120,243039,237011,245055,239024,799664.0,793635.0,801680.0,795649.0,55
2,0,1,0,0,48,test,1,1,m,Tue Sep 03 2024 10:16:48 GMT-0500 (Central Daylight Time),819437.0,O,m,1255,56,1,13.bmp,-120,-120,14.bmp,120,-120,15.bmp,-120,120,16.bmp,120,120,9310.599999964237,810126.4000000358,7016,yes,SM,B,13.bmp,120,-120,243039,237011,245055,239024,808911.0,802883.0,810927.0,804896.0,56
4,0,0,0,1,48,test,1,0,m,Tue Sep 03 2024 10:16:48 GMT-0500 (Central Daylight Time),828967.2000000477,O,z,1477,57,1,17.bmp,-120,-120,18.bmp,120,-120,19.bmp,-120,120,20.bmp,120,120,9527.300000011921,819439.9000000358,7016,yes,SM,B,18.bmp,120,120,243039,237011,245055,239024,818224.0,812196.0,820241.0,814209.0,57
3,0,0,1,0,49,test,1,1,z,Tue Sep 03 2024 10:16:48 GMT-0500 (Central Daylight Time),838481.1000000238,O,z,1459,58,1,21.bmp,-120,-120,22.bmp,120,-120,23.bmp,-120,120,24.bmp,120,120,9510.699999988079,828970.4000000358,7016,yes,SM,B,23.bmp,-120,120,243039,237011,245055,239024,827755.0,821727.0,829771.0,823740.0,58
2,0,1,0,0,50,test,1,1,m,Tue Sep 03 2024 10:16:48 GMT-0500 (Central Daylight Time),847994.9000000358,O,m,1450,59,1,25.bmp,-120,-120,26.bmp,120,-120,27.bmp,-120,120,28.bmp,120,120,9510.699999988079,838484.2000000477,7016,yes,SM,B,28.bmp,120,-120,243039,237011,245055,239024,837270.0,831240.0,839285.0,833253.0,59
1,1,0,0,0,51,test,1,1,z,Tue Sep 03 2024 10:16:48 GMT-0500 (Central Daylight Time),857508.6000000238,O,z,1464,60,1,29.bmp,-120,-120,30.bmp,120,-120,31.bmp,-120,120,32.bmp,120,120,9510.699999988079,847997.9000000358,7016,yes,SM,B,29.bmp,-120,-120,243039,237011,245055,239024,846782.0,840754.0,848798.0,842767.0,60
2,0,1,0,0,52,test,1,1,z,Tue Sep 03 2024 10:16:48 GMT-0500 (Central Daylight Time),866522.5,O,z,966,61,1,33.bmp,-120,-120,34.bmp,120,-120,35.bmp,-120,120,36.bmp,120,120,9011.0,857511.5,7016,yes,SM,B,34.bmp,120,-120,243039,237011,245055,239024,856296.0,850268.0,858312.0,852281.0,61
4,0,0,0,1,53,test,1,1,z,Tue Sep 03 2024 10:16:48 GMT-0500 (Central Daylight Time),875519.4000000358,O,z,944,62,1,41.bmp,-120,-120,42.bmp,120,-120,43.bmp,-120,120,44.bmp,120,120,8994.199999988079,866525.2000000477,7016,yes,SM,B,44.bmp,120,120,243039,237011,245055,239024,865310.0,859281.0,867326.0,861295.0,62
1,1,0,0,0,54,test,1,1,m,Tue Sep 03 2024 10:16:48 GMT-0500 (Central Daylight Time),885283.1000000238,O,m,1716,63,1,45.bmp,-120,-120,46.bmp,120,-120,47.bmp,-120,120,48.bmp,120,120,9760.600000023842,875522.5,7016,yes,SM,B,45.bmp,-120,120,243039,237011,245055,239024,874307.0,868279.0,876323.0,870292.0,63
2,0,1,0,0,55,test,1,1,z,Tue Sep 03 2024 10:16:48 GMT-0500 (Central Daylight Time),894246.8000000119,O,z,911,64,1,49.bmp,-120,-120,50.bmp,120,-120,12.bmp,-120,120,1.bmp,120,120,8960.800000011921,885286.0,7016,yes,SM,B,50.bmp,120,-120,243039,237011,245055,239024,884071.0,878042.0,886087.0,880055.0,64
4,0,0,0,1,56,test,1,1,m,Tue Sep 03 2024 10:16:48 GMT-0500 (Central Daylight Time),903727.4000000358,O,m,1419,65,1,2.bmp,-120,-120,3.bmp,120,-120,4.bmp,-120,120,5.bmp,120,120,9477.5,894249.9000000358,7016,yes,SM,B,4.bmp,120,120,243039,237011,245055,239024,893035.0,887006.0,895051.0,889019.0,65
3,0,0,1,0,57,test,1,1,m,Tue Sep 03 2024 10:16:48 GMT-0500 (Central Daylight Time),913090.9000000358,O,m,1300,66,1,6.bmp,-120,-120,7.bmp,120,-120,8.bmp,-120,120,9.bmp,120,120,9360.5,903730.4000000358,7016,yes,SM,B,9.bmp,-120,120,243039,237011,245055,239024,902515.0,896487.0,904531.0,898500.0,66
2,0,1,0,0,58,test,1,1,m,Tue Sep 03 2024 10:16:48 GMT-0500 (Central Daylight Time),922354.7000000477,O,m,1207,67,1,37.bmp,-120,-120,38.bmp,120,-120,39.bmp,-120,120,40.bmp,120,120,9261.100000023842,913093.6000000238,7016,yes,SM,B,39.bmp,120,-120,243039,237011,245055,239024,911879.0,905850.0,913895.0,907863.0,67
3,0,0,1,0,58,test,1,0,z,Tue Sep 03 2024 10:16:48 GMT-0500 (Central Daylight Time),932418.2000000477,O,None,2015,68,1,10.bmp,-120,-120,11.bmp,120,-120,12.bmp,-120,120,13.bmp,120,120,10060.700000047684,922357.5,7016,yes,SM,B,12.bmp,-120,120,243039,237011,245055,239024,921142.0,915114.0,923159.0,917127.0,68
1,1,0,0,0,59,test,1,1,m,Tue Sep 03 2024 10:16:48 GMT-0500 (Central Daylight Time),941448.6000000238,O,m,976,69,1,14.bmp,-120,-120,15.bmp,120,-120,16.bmp,-120,120,17.bmp,120,120,9027.699999988079,932420.9000000358,7016,yes,SM,B,15.bmp,-120,-120,243039,237011,245055,239024,931206.0,925177.0,933222.0,927191.0,69
2,0,1,0,0,60,test,1,1,m,Tue Sep 03 2024 10:16:48 GMT-0500 (Central Daylight Time),951195.6000000238,O,m,1697,70,1,18.bmp,-120,-120,19.bmp,120,-120,20.bmp,-120,120,21.bmp,120,120,9744.199999988079,941451.4000000358,7016,yes,SM,B,20.bmp,120,-120,243039,237011,245055,239024,940236.0,934208.0,942253.0,936221.0,70
4,0,0,0,1,61,test,1,1,z,Tue Sep 03 2024 10:16:48 GMT-0500 (Central Daylight Time),960509.5,O,z,1263,71,1,22.bmp,-120,-120,23.bmp,120,-120,24.bmp,-120,120,25.bmp,120,120,9310.099999964237,951199.4000000358,7016,yes,SM,B,25.bmp,120,120,243039,237011,245055,239024,949984.0,943956.0,951999.0,945968.0,71
1,1,0,0,0,62,test,1,1,z,Tue Sep 03 2024 10:16:48 GMT-0500 (Central Daylight Time),969924.2000000477,O,z,1365,72,1,26.bmp,-120,-120,27.bmp,120,-120,28.bmp,-120,120,29.bmp,120,120,9411.900000035763,960512.3000000119,7016,yes,SM,B,26.bmp,-120,-120,243039,237011,245055,239024,959297.0,953268.0,961313.0,955282.0,72
2,0,1,0,0,63,test,1,1,z,Tue Sep 03 2024 10:16:48 GMT-0500 (Central Daylight Time),979436.7000000477,O,z,1455,73,1,30.bmp,-120,-120,31.bmp,120,-120,32.bmp,-120,120,33.bmp,120,120,9509.0,969927.7000000477,7016,yes,SM,B,31.bmp,120,-120,243039,237011,245055,239024,968711.0,962684.0,970727.0,964695.0,73
4,0,0,0,1,64,test,1,1,m,Tue Sep 03 2024 10:16:48 GMT-0500 (Central Daylight Time),988617.2000000477,O,m,1125,74,1,34.bmp,-120,-120,35.bmp,120,-120,36.bmp,-120,120,37.bmp,120,120,9177.200000047684,979440.0,7016,yes,SM,B,36.bmp,120,120,243039,237011,245055,239024,978224.0,972196.0,980241.0,974209.0,74
2,0,1,0,0,65,test,1,1,m,Tue Sep 03 2024 10:16:48 GMT-0500 (Central Daylight Time),998397.6000000238,O,m,1612,75,1,38.bmp,-120,-120,39.bmp,120,-120,40.bmp,-120,120,41.bmp,120,120,9777.600000023842,988620.0,7016,yes,SM,B,41.bmp,120,-120,243039,237011,245055,239024,987522.0,981376.0,989538.0,983520.0,75
1,1,0,0,0,66,test,1,1,z,Tue Sep 03 2024 10:16:48 GMT-0500 (Central Daylight Time),1007561.4000000358,O,z,1101,76,1,42.bmp,-120,-120,43.bmp,120,-120,44.bmp,-120,120,45.bmp,120,120,9160.600000023842,998400.8000000119,7016,yes,SM,B,42.bmp,-120,-120,243039,237011,245055,239024,997185.0,991157.0,999201.0,993170.0,76
3,0,0,1,0,67,test,1,1,z,Tue Sep 03 2024 10:16:48 GMT-0500 (Central Daylight Time),1016708.2000000477,O,z,1097,77,1,50.bmp,-120,-120,11.bmp,120,-120,1.bmp,-120,120,2.bmp,120,120,9143.400000035763,1007564.8000000119,7016,yes,SM,B,1.bmp,-120,120,243039,237011,245055,239024,1006349.0,1000321.0,1008365.0,1002335.0,77
1,1,0,0,0,68,test,1,1,m,Tue Sep 03 2024 10:16:48 GMT-0500 (Central Daylight Time),1025922.1000000238,O,m,1159,78,1,46.bmp,-120,-120,47.bmp,120,-120,48.bmp,-120,120,49.bmp,120,120,9210.399999976158,1016711.7000000477,7016,yes,SM,B,47.bmp,-120,-120,243039,237011,245055,239024,1015496.0,1009468.0,1017512.0,1011481.0,78
4,0,0,0,1,69,test,1,1,m,Tue Sep 03 2024 10:16:48 GMT-0500 (Central Daylight Time),1035235.9000000358,O,m,1264,79,1,7.bmp,-120,-120,8.bmp,120,-120,9.bmp,-120,120,10.bmp,120,120,9309.400000035763,1025926.5,7016,yes,SM,B,7.bmp,120,120,243039,237011,245055,239024,1024710.0,1018683.0,1026726.0,1020695.0,79
3,0,0,1,0,70,test,1,1,m,Tue Sep 03 2024 10:16:48 GMT-0500 (Central Daylight Time),1044316.5,O,m,1031,80,1,3.bmp,-120,-120,4.bmp,120,-120,5.bmp,-120,120,6.bmp,120,120,9077.299999952316,1035239.2000000477,7016,yes,SM,B,6.bmp,-120,120,243039,237011,245055,239024,1034023.0,1027995.0,1036040.0,1030009.0,80
