 Q  Q1  Q2  Q3  Q4  acc_sum block  block_c  correct correct_response                                                  datetime  endtime project response  response_time  row_sel session_number squiggle1  squiggle1x  squiggle1y squiggle2  squiggle2x  squiggle2y squiggle3  squiggle3x  squiggle3y squiggle4  squiggle4x  squiggle4y  start_end  starttime subject_id target_congruent task task_vers testsquiggle  testsquigglex  testsquiggley  time_practice_delay  time_practice_fixation  time_practice_stimuli  time_practice_study  time_test_delay  time_test_fixation  time_test_stimuli  time_test_study  trial
 1   1   0   0   0        1  prac        1        1                z Wed Sep 04 2024 15:10:13 GMT-0500 (Central Daylight Time) 162855.5       O        z           1281        1              1   116.bmp        -120        -120   117.bmp         120        -120   118.bmp        -120         120   119.bmp         120         120    10076.4   152779.1       7004              yes   SM         A      116.bmp           -120           -120               156902                  150883                 158906               152894              NaN                 NaN                NaN              NaN      1
 3   0   0   1   0        2  prac        1        1                m Wed Sep 04 2024 15:10:13 GMT-0500 (Central Daylight Time) 173242.6       O        m           1578        2              1   120.bmp        -120        -120   121.bmp         120        -120   122.bmp        -120         120   123.bmp         120         120    10377.0   162865.6       7004               no   SM         A      123.bmp           -120            120               166990                  160970                 168992               162981              NaN                 NaN                NaN              NaN      2
 4   0   0   0   1        3  prac        1        1                m Wed Sep 04 2024 15:10:13 GMT-0500 (Central Daylight Time) 183277.7       O        m           1223        3              1   124.bmp        -120        -120   125.bmp         120        -120   126.bmp        -120         120   127.bmp         120         120    10026.7   173251.0       7004               no   SM         A      124.bmp            120            120               177374                  171355                 179380               173367              NaN                 NaN                NaN              NaN      3
 2   0   1   0   0        4  prac        1        1                z Wed Sep 04 2024 15:10:13 GMT-0500 (Central Daylight Time) 193297.9       O        z           1219        4              1   128.bmp        -120        -120   129.bmp         120        -120   130.bmp        -120         120   131.bmp         120         120    10017.7   183280.2       7004              yes   SM         A      129.bmp            120           -120               187394                  181384                 189399               183387              NaN                 NaN                NaN              NaN      4
 3   0   0   1   0        5  prac        1        1                z Wed Sep 04 2024 15:10:13 GMT-0500 (Central Daylight Time) 203567.8       O        z           1464        5              1   132.bmp        -120        -120   133.bmp         120        -120   134.bmp        -120         120   135.bmp         120         120    10263.2   193304.6       7004              yes   SM         A      134.bmp           -120            120               197431                  191409                 199435               193423              NaN                 NaN                NaN              NaN      5
 1   1   0   0   0        6  prac        1        1                m Wed Sep 04 2024 15:10:13 GMT-0500 (Central Daylight Time) 213837.3       O        m           1466        6              1   136.bmp        -120        -120   137.bmp         120        -120   138.bmp        -120         120   139.bmp         120         120    10260.2   203577.1       7004               no   SM         A      139.bmp           -120           -120               207701                  201681                 209705               203693              NaN                 NaN                NaN              NaN      6
 2   0   1   0   0        7  prac        1        1                m Wed Sep 04 2024 15:10:13 GMT-0500 (Central Daylight Time) 223974.2       O        m           1324        7              1   140.bmp        -120        -120   141.bmp         120        -120   142.bmp        -120         120   143.bmp         120         120    10129.4   213844.8       7004               no   SM         A      140.bmp            120           -120               217971                  211949                 219974               213963              NaN                 NaN                NaN              NaN      7
 4   0   0   0   1        8  prac        1        1                z Wed Sep 04 2024 15:10:13 GMT-0500 (Central Daylight Time) 233860.3       O        z           1083        8              1   144.bmp        -120        -120   145.bmp         120        -120   146.bmp        -120         120   147.bmp         120         120     9879.0   223981.3       7004              yes   SM         A      147.bmp            120            120               228107                  222085                 230111               224099              NaN                 NaN                NaN              NaN      8
 4   0   0   0   1        0  test        1        0                m Wed Sep 04 2024 15:10:13 GMT-0500 (Central Daylight Time) 257890.3       O        z           1636        1              1   148.bmp        -120        -120   149.bmp         120        -120   150.bmp        -120         120   143.bmp         120         120     9661.0   248229.3       7004               no   SM         A      150.bmp            120            120               228107                  222085                 230111               224099         252353.0            246334.0           254358.0         248347.0      1
 2   0   1   0   0        1  test        1        1                m Wed Sep 04 2024 15:10:13 GMT-0500 (Central Daylight Time) 267074.6       O        m           1144        2              1   101.bmp        -120        -120   102.bmp         120        -120   103.bmp        -120         120   104.bmp         120         120     9177.0   257897.6       7004               no   SM         A      103.bmp            120           -120               228107                  222085                 230111               224099         262023.0            256002.0           264027.0         258015.0      2
 1   1   0   0   0        2  test        1        1                z Wed Sep 04 2024 15:10:13 GMT-0500 (Central Daylight Time) 276058.8       O        z            943        3              1   105.bmp        -120        -120   106.bmp         120        -120   107.bmp        -120         120   108.bmp         120         120     8978.6   267080.2       7004              yes   SM         A      105.bmp           -120           -120               228107                  222085                 230111               224099         271208.0            265184.0           273211.0         267200.0      3
 3   0   0   1   0        2  test        1        0                m Wed Sep 04 2024 15:10:13 GMT-0500 (Central Daylight Time) 285243.7       O        z           1134        4              1   109.bmp        -120        -120   110.bmp         120        -120   111.bmp        -120         120   112.bmp         120         120     9177.2   276066.5       7004               no   SM         A      109.bmp           -120            120               228107                  222085                 230111               224099         280191.0            274171.0           282196.0         276184.0      4
 2   0   1   0   0        2  test        1        0                z Wed Sep 04 2024 15:10:13 GMT-0500 (Central Daylight Time) 294661.6       O        m           1374        5              1   113.bmp        -120        -120   114.bmp         120        -120   115.bmp        -120         120   116.bmp         120         120     9409.5   285252.1       7004              yes   SM         A      114.bmp            120           -120               228107                  222085                 230111               224099         289376.0            283357.0           291380.0         285369.0      5
 3   0   0   1   0        3  test        1        1                z Wed Sep 04 2024 15:10:13 GMT-0500 (Central Daylight Time) 303695.6       O        z            988        6              1   117.bmp        -120        -120   118.bmp         120        -120   119.bmp        -120         120   120.bmp         120         120     9026.2   294669.4       7004              yes   SM         A      119.bmp           -120            120               228107                  222085                 230111               224099         298795.0            292774.0           300799.0         294787.0      6
 4   0   0   0   1        3  test        1        0                z Wed Sep 04 2024 15:10:13 GMT-0500 (Central Daylight Time) 313733.1       O     None           2003        7              1   121.bmp        -120        -120   122.bmp         120        -120   123.bmp        -120         120   124.bmp         120         120    10029.9   303703.2       7004              yes   SM         A      124.bmp            120            120               228107                  222085                 230111               224099         307828.0            301807.0           309833.0         303821.0      7
 2   0   1   0   0        3  test        1        0                m Wed Sep 04 2024 15:10:13 GMT-0500 (Central Daylight Time) 323734.5       O        z           1964        8              1   125.bmp        -120        -120   126.bmp         120        -120   127.bmp        -120         120   128.bmp         120         120     9993.1   313741.4       7004               no   SM         A      125.bmp            120           -120               228107                  222085                 230111               224099         317864.0            311846.0           319869.0         313857.0      8
 3   0   0   1   0        4  test        1        1                m Wed Sep 04 2024 15:10:13 GMT-0500 (Central Daylight Time) 333436.6       O        m           1667        9              1   129.bmp        -120        -120   130.bmp         120        -120   131.bmp        -120         120   132.bmp         120         120     9694.3   323742.3       7004               no   SM         A      130.bmp           -120            120               228107                  222085                 230111               224099         327867.0            321847.0           329872.0         323860.0      9
 4   0   0   0   1        5  test        1        1                z Wed Sep 04 2024 15:10:13 GMT-0500 (Central Daylight Time) 342437.6       O        z            965       10              1   137.bmp        -120        -120   138.bmp         120        -120   139.bmp        -120         120   140.bmp         120         120     8997.2   333440.4       7004              yes   SM         A      140.bmp            120            120               228107                  222085                 230111               224099         337570.0            331545.0           339574.0         333562.0     10
 3   0   0   1   0        6  test        1        1                z Wed Sep 04 2024 15:10:13 GMT-0500 (Central Daylight Time) 351254.6       O        z            772       11              1   133.bmp        -120        -120   134.bmp         120        -120   135.bmp        -120         120   136.bmp         120         120     8810.2   342444.4       7004              yes   SM         A      135.bmp           -120            120               228107                  222085                 230111               224099         346570.0            340549.0           348575.0         342563.0     11
 2   0   1   0   0        7  test        1        1                m Wed Sep 04 2024 15:10:13 GMT-0500 (Central Daylight Time) 360372.7       O        m           1081       12              1   141.bmp        -120        -120   142.bmp         120        -120   143.bmp        -120         120   144.bmp         120         120     9111.3   351261.4       7004               no   SM         A      141.bmp            120           -120               228107                  222085                 230111               224099         355388.0            349366.0           357392.0         351380.0     12
 3   0   0   1   0        8  test        1        1                m Wed Sep 04 2024 15:10:13 GMT-0500 (Central Daylight Time) 369539.6       O        m           1123       13              1   145.bmp        -120        -120   146.bmp         120        -120   147.bmp        -120         120   148.bmp         120         120     9162.9   360376.7       7004               no   SM         A      146.bmp           -120            120               228107                  222085                 230111               224099         364506.0            358481.0           366510.0         360498.0     13
 1   1   0   0   0        8  test        1        0                z Wed Sep 04 2024 15:10:13 GMT-0500 (Central Daylight Time) 379125.6       O        m           1549       14              1   149.bmp        -120        -120   150.bmp         120        -120   104.bmp        -120         120   101.bmp         120         120     9581.8   369543.8       7004              yes   SM         A      149.bmp           -120           -120               228107                  222085                 230111               224099         373673.0            367648.0           375677.0         369666.0     14
 4   0   0   0   1        9  test        1        1                m Wed Sep 04 2024 15:10:13 GMT-0500 (Central Daylight Time) 389128.3       O        m           1964       15              1   110.bmp        -120        -120   111.bmp         120        -120   112.bmp        -120         120   113.bmp         120         120     9995.2   379133.1       7004               no   SM         A      111.bmp            120            120               228107                  222085                 230111               224099         383259.0            377237.0           385263.0         379251.0     15
 1   1   0   0   0       10  test        1        1                m Wed Sep 04 2024 15:10:13 GMT-0500 (Central Daylight Time) 398614.5       O        m           1440       16              1   102.bmp        -120        -120   103.bmp         120        -120   104.bmp        -120         120   105.bmp         120         120     9480.1   389134.4       7004               no   SM         A      105.bmp           -120           -120               228107                  222085                 230111               224099         393261.0            387239.0           395266.0         389254.0     16
 3   0   0   1   0       11  test        1        1                m Wed Sep 04 2024 15:10:13 GMT-0500 (Central Daylight Time) 407614.9       O        m            965       17              1   122.bmp        -120        -120   123.bmp         120        -120   124.bmp        -120         120   125.bmp         120         120     8995.9   398619.0       7004               no   SM         A      122.bmp           -120            120               228107                  222085                 230111               224099         402747.0            396723.0           404750.0         398739.0     17
 1   1   0   0   0       12  test        1        1                z Wed Sep 04 2024 15:10:13 GMT-0500 (Central Daylight Time) 416799.1       O        z           1146       18              1   106.bmp        -120        -120   107.bmp         120        -120   108.bmp        -120         120   109.bmp         120         120     9177.9   407621.2       7004              yes   SM         A      106.bmp           -120           -120               228107                  222085                 230111               224099         411747.0            405725.0           413752.0         407740.0     18
 2   0   1   0   0       13  test        1        1                z Wed Sep 04 2024 15:10:13 GMT-0500 (Central Daylight Time) 426200.4       O        z           1362       19              1   126.bmp        -120        -120   127.bmp         120        -120   128.bmp        -120         120   129.bmp         120         120     9395.0   416805.4       7004              yes   SM         A      127.bmp            120           -120               228107                  222085                 230111               224099         420933.0            414910.0           422937.0         416925.0     19
 3   0   0   1   0       14  test        1        1                z Wed Sep 04 2024 15:10:13 GMT-0500 (Central Daylight Time) 435067.5       O        z            833       20              1   130.bmp        -120        -120   131.bmp         120        -120   132.bmp        -120         120   133.bmp         120         120     8856.4   426211.1       7004              yes   SM         A      132.bmp           -120            120               228107                  222085                 230111               224099         430333.0            424315.0           432337.0         426326.0     20
 1   1   0   0   0       14  test        1        0                m Wed Sep 04 2024 15:10:13 GMT-0500 (Central Daylight Time) 444219.3       O        z           1119       21              1   114.bmp        -120        -120   115.bmp         120        -120   116.bmp        -120         120   117.bmp         120         120     9147.4   435071.9       7004               no   SM         A      116.bmp           -120           -120               228107                  222085                 230111               224099         439201.0            433176.0           441204.0         435193.0     21
 4   0   0   0   1       15  test        1        1                z Wed Sep 04 2024 15:10:13 GMT-0500 (Central Daylight Time) 453170.1       O        z            902       22              1   118.bmp        -120        -120   119.bmp         120        -120   120.bmp        -120         120   121.bmp         120         120     8944.9   444225.2       7004              yes   SM         A      121.bmp            120            120               228107                  222085                 230111               224099         448352.0            442330.0           450356.0         444344.0     22
 1   1   0   0   0       16  test        1        1                m Wed Sep 04 2024 15:10:13 GMT-0500 (Central Daylight Time) 462520.9       O        m           1311       23              1   134.bmp        -120        -120   135.bmp         120        -120   136.bmp        -120         120   137.bmp         120         120     9344.7   453176.2       7004               no   SM         A      137.bmp           -120           -120               228107                  222085                 230111               224099         457303.0            451281.0           459307.0         453295.0     23
 2   0   1   0   0       16  test        1        0                z Wed Sep 04 2024 15:10:13 GMT-0500 (Central Daylight Time) 472256.9       O        m           1696       24              1   142.bmp        -120        -120   143.bmp         120        -120   144.bmp        -120         120   145.bmp         120         120     9728.2   462528.7       7004              yes   SM         A      143.bmp            120           -120               228107                  222085                 230111               224099         466654.0            460633.0           468659.0         462646.0     24
 4   0   0   0   1       16  test        1        0                m Wed Sep 04 2024 15:10:13 GMT-0500 (Central Daylight Time) 481675.6       O        z           1377       25              1   146.bmp        -120        -120   147.bmp         120        -120   148.bmp        -120         120   149.bmp         120         120     9411.3   472264.3       7004               no   SM         A      148.bmp            120            120               228107                  222085                 230111               224099         476389.0            470369.0           478394.0         472382.0     25
 1   1   0   0   0       16  test        1        0                z Wed Sep 04 2024 15:10:13 GMT-0500 (Central Daylight Time) 491211.2       O        m           1487       26              1   138.bmp        -120        -120   139.bmp         120        -120   140.bmp        -120         120   141.bmp         120         120     9528.7   481682.5       7004              yes   SM         A      138.bmp           -120           -120               228107                  222085                 230111               224099         485808.0            479787.0           487812.0         481801.0     26
 4   0   0   0   1       16  test        1        0                z Wed Sep 04 2024 15:10:13 GMT-0500 (Central Daylight Time) 501247.0       O     None           2003       27              1   150.bmp        -120        -120   111.bmp         120        -120   101.bmp        -120         120   102.bmp         120         120    10027.6   491219.4       7004              yes   SM         A      102.bmp            120            120               228107                  222085                 230111               224099         495343.0            489324.0           497348.0         491335.0     27
 3   0   0   1   0       16  test        1        0                m Wed Sep 04 2024 15:10:13 GMT-0500 (Central Daylight Time) 511283.1       O     None           2001       28              1   103.bmp        -120        -120   104.bmp         120        -120   105.bmp        -120         120   106.bmp         120         120    10030.1   501253.0       7004               no   SM         A      103.bmp           -120            120               228107                  222085                 230111               224099         505380.0            499357.0           507386.0         501373.0     28
 2   0   1   0   0       17  test        1        1                z Wed Sep 04 2024 15:10:13 GMT-0500 (Central Daylight Time) 520233.4       O        z            902       29              1   107.bmp        -120        -120   108.bmp         120        -120   109.bmp        -120         120   110.bmp         120         120     8942.3   511291.1       7004              yes   SM         A      108.bmp            120           -120               228107                  222085                 230111               224099         515416.0            509395.0           517420.0         511409.0     29
 3   0   0   1   0       18  test        1        1                z Wed Sep 04 2024 15:10:13 GMT-0500 (Central Daylight Time) 528849.9       O        z            567       30              1   111.bmp        -120        -120   112.bmp         120        -120   113.bmp        -120         120   114.bmp         120         120     8609.0   520240.9       7004              yes   SM         A      113.bmp           -120            120               228107                  222085                 230111               224099         524367.0            518345.0           526371.0         520359.0     30
 1   1   0   0   0       18  test        1        0                z Wed Sep 04 2024 15:10:13 GMT-0500 (Central Daylight Time) 538652.8       O        m           1768       31              1   115.bmp        -120        -120   116.bmp         120        -120   117.bmp        -120         120   118.bmp         120         120     9796.8   528856.0       7004              yes   SM         A      115.bmp           -120           -120               228107                  222085                 230111               224099         532983.0            526960.0           534987.0         528975.0     31
 2   0   1   0   0       18  test        1        0                m Wed Sep 04 2024 15:10:13 GMT-0500 (Central Daylight Time) 548588.9       O        z           1899       32              1   119.bmp        -120        -120   120.bmp         120        -120   121.bmp        -120         120   122.bmp         120         120     9932.4   538656.5       7004               no   SM         A      119.bmp            120           -120               228107                  222085                 230111               224099         542785.0            536761.0           544791.0         538778.0     32
 4   0   0   0   1       19  test        1        1                z Wed Sep 04 2024 15:10:13 GMT-0500 (Central Daylight Time) 557455.7       O        z            821       33              1   131.bmp        -120        -120   132.bmp         120        -120   133.bmp        -120         120   134.bmp         120         120     8860.0   548595.7       7004              yes   SM         A      134.bmp            120            120               228107                  222085                 230111               224099         552722.0            546700.0           554726.0         548714.0     33
 2   0   1   0   0       20  test        1        1                z Wed Sep 04 2024 15:10:13 GMT-0500 (Central Daylight Time) 566239.8       O        z            737       34              1   123.bmp        -120        -120   124.bmp         120        -120   125.bmp        -120         120   126.bmp         120         120     8777.2   557462.6       7004              yes   SM         A      124.bmp            120           -120               228107                  222085                 230111               224099         561589.0            555567.0           563593.0         557582.0     34
 4   0   0   0   1       20  test        1        0                m Wed Sep 04 2024 15:10:13 GMT-0500 (Central Daylight Time) 576276.0       O     None           2003       35              1   127.bmp        -120        -120   128.bmp         120        -120   129.bmp        -120         120   130.bmp         120         120    10030.2   566245.8       7004               no   SM         A      129.bmp            120            120               228107                  222085                 230111               224099         570372.0            564350.0           572377.0         566365.0     35
 3   0   0   1   0       20  test        1        0                m Wed Sep 04 2024 15:10:13 GMT-0500 (Central Daylight Time) 585544.1       O        z           1231       36              1   135.bmp        -120        -120   136.bmp         120        -120   137.bmp        -120         120   138.bmp         120         120     9260.2   576283.9       7004               no   SM         A      135.bmp           -120            120               228107                  222085                 230111               224099         580409.0            574388.0           582412.0         576401.0     36
 1   1   0   0   0       21  test        1        1                m Wed Sep 04 2024 15:10:13 GMT-0500 (Central Daylight Time) 594912.2       O        m           1330       37              1   139.bmp        -120        -120   140.bmp         120        -120   141.bmp        -120         120   142.bmp         120         120     9360.9   585551.3       7004               no   SM         A      140.bmp           -120           -120               228107                  222085                 230111               224099         589677.0            583656.0           591681.0         585669.0     37
 2   0   1   0   0       21  test        1        0                m Wed Sep 04 2024 15:10:13 GMT-0500 (Central Daylight Time) 604948.3       O     None           2002       38              1   143.bmp        -120        -120   144.bmp         120        -120   145.bmp        -120         120   146.bmp         120         120    10027.7   594920.6       7004               no   SM         A      145.bmp            120           -120               228107                  222085                 230111               224099         599045.0            593025.0           601050.0         595038.0     38
 4   0   0   0   1       22  test        1        1                z Wed Sep 04 2024 15:10:13 GMT-0500 (Central Daylight Time) 613765.7       O        z            772       39              1   147.bmp        -120        -120   148.bmp         120        -120   149.bmp        -120         120   150.bmp         120         120     8809.8   604955.9       7004              yes   SM         A      150.bmp            120            120               228107                  222085                 230111               224099         609081.0            603060.0           611086.0         605073.0     39
 3   0   0   1   0       23  test        1        1                m Wed Sep 04 2024 15:10:13 GMT-0500 (Central Daylight Time) 622966.5       O        m           1155       40              1   104.bmp        -120        -120   105.bmp         120        -120   106.bmp        -120         120   107.bmp         120         120     9192.7   613773.8       7004               no   SM         A      105.bmp           -120            120               228107                  222085                 230111               224099         617899.0            611878.0           619903.0         613892.0     40
 1   1   0   0   0       24  test        1        1                z Wed Sep 04 2024 15:10:13 GMT-0500 (Central Daylight Time) 631800.3       O        z            786       41              1   108.bmp        -120        -120   109.bmp         120        -120   110.bmp        -120         120   111.bmp         120         120     8826.6   622973.7       7004              yes   SM         A      108.bmp           -120           -120               228107                  222085                 230111               224099         627100.0            621078.0           629103.0         623092.0     41
 4   0   0   0   1       24  test        1        0                z Wed Sep 04 2024 15:10:13 GMT-0500 (Central Daylight Time) 640884.9       O        m           1040       42              1   112.bmp        -120        -120   113.bmp         120        -120   114.bmp        -120         120   115.bmp         120         120     9078.3   631806.6       7004              yes   SM         A      115.bmp            120            120               228107                  222085                 230111               224099         635933.0            629911.0           637938.0         631926.0     42
 1   1   0   0   0       25  test        1        1                z Wed Sep 04 2024 15:10:13 GMT-0500 (Central Daylight Time) 649418.2       O        z            492       43              1   116.bmp        -120        -120   117.bmp         120        -120   118.bmp        -120         120   119.bmp         120         120     8527.5   640890.7       7004              yes   SM         A      116.bmp           -120           -120               228107                  222085                 230111               224099         645018.0            638995.0           647022.0         641010.0     43
 4   0   0   0   1       26  test        1        1                m Wed Sep 04 2024 15:10:13 GMT-0500 (Central Daylight Time) 658403.0       O        m            952       44              1   104.bmp        -120        -120   101.bmp         120        -120   102.bmp        -120         120   103.bmp         120         120     8978.1   649424.9       7004               no   SM         A      104.bmp            120            120               228107                  222085                 230111               224099         653550.0            647529.0           655555.0         649545.0     44
 1   1   0   0   0       27  test        1        1                m Wed Sep 04 2024 15:10:13 GMT-0500 (Central Daylight Time) 667621.0       O        m           1182       45              1   128.bmp        -120        -120   129.bmp         120        -120   130.bmp        -120         120   131.bmp         120         120     9211.2   658409.8       7004               no   SM         A      131.bmp           -120           -120               228107                  222085                 230111               224099         662535.0            656514.0           664540.0         658527.0     45
 1   1   0   0   0       28  test        1        1                m Wed Sep 04 2024 15:10:13 GMT-0500 (Central Daylight Time) 677022.6       O        m           1356       46              1   120.bmp        -120        -120   121.bmp         120        -120   122.bmp        -120         120   123.bmp         120         120     9394.8   667627.8       7004               no   SM         A      121.bmp           -120           -120               228107                  222085                 230111               224099         671753.0            665732.0           673758.0         667745.0     46
 3   0   0   1   0       28  test        1        0                z Wed Sep 04 2024 15:10:13 GMT-0500 (Central Daylight Time) 686424.5       O        m           1363       47              1   124.bmp        -120        -120   125.bmp         120        -120   126.bmp        -120         120   127.bmp         120         120     9395.1   677029.4       7004              yes   SM         A      126.bmp           -120            120               228107                  222085                 230111               224099         681154.0            675134.0           683159.0         677147.0     47
 3   0   0   1   0       29  test        1        1                z Wed Sep 04 2024 15:10:13 GMT-0500 (Central Daylight Time) 695691.6       O        z           1226       48              1   140.bmp        -120        -120   141.bmp         120        -120   142.bmp        -120         120   143.bmp         120         120     9259.5   686432.1       7004              yes   SM         A      142.bmp           -120            120               228107                  222085                 230111               224099         690556.0            684536.0           692561.0         686549.0     48
 2   0   1   0   0       29  test        1        0                z Wed Sep 04 2024 15:10:13 GMT-0500 (Central Daylight Time) 705727.2       O     None           2002       49              1   136.bmp        -120        -120   137.bmp         120        -120   138.bmp        -120         120   139.bmp         120         120    10028.0   695699.2       7004              yes   SM         A      137.bmp            120           -120               228107                  222085                 230111               224099         699825.0            693803.0           701829.0         695817.0     49
 3   0   0   1   0       29  test        1        0                m Wed Sep 04 2024 15:10:13 GMT-0500 (Central Daylight Time) 714828.8       O        z           1083       50              1   132.bmp        -120        -120   133.bmp         120        -120   134.bmp        -120         120   135.bmp         120         120     9099.2   705729.6       7004               no   SM         A      132.bmp           -120            120               228107                  222085                 230111               224099         709844.0            703834.0           711848.0         705836.0     50
 2   0   1   0   0       30  test        1        1                z Wed Sep 04 2024 15:10:13 GMT-0500 (Central Daylight Time) 724230.1       O        z           1356       51              1   144.bmp        -120        -120   145.bmp         120        -120   146.bmp        -120         120   147.bmp         120         120     9394.3   714835.8       7004              yes   SM         A      145.bmp            120           -120               228107                  222085                 230111               224099         718961.0            712940.0           720966.0         714954.0     51
 4   0   0   0   1       31  test        1        1                m Wed Sep 04 2024 15:10:13 GMT-0500 (Central Daylight Time) 733381.2       O        m           1106       52              1   148.bmp        -120        -120   149.bmp         120        -120   150.bmp        -120         120   131.bmp         120         120     9147.0   724234.2       7004               no   SM         A      148.bmp            120            120               228107                  222085                 230111               224099         728363.0            722338.0           730368.0         724356.0     52
 3   0   0   1   0       32  test        1        1                z Wed Sep 04 2024 15:10:13 GMT-0500 (Central Daylight Time) 742482.0       O        z           1059       53              1   101.bmp        -120        -120   102.bmp         120        -120   103.bmp        -120         120   104.bmp         120         120     9095.0   733387.0       7004              yes   SM         A      103.bmp           -120            120               228107                  222085                 230111               224099         737514.0            731491.0           739519.0         733508.0     53
 1   1   0   0   0       32  test        1        0                m Wed Sep 04 2024 15:10:13 GMT-0500 (Central Daylight Time) 752468.3       O        z           1959       54              1   105.bmp        -120        -120   106.bmp         120        -120   107.bmp        -120         120   108.bmp         120         120     9984.4   742483.9       7004               no   SM         A      107.bmp           -120           -120               228107                  222085                 230111               224099         746598.0            740588.0           748603.0         742592.0     54
 4   0   0   0   1       32  test        1        0                z Wed Sep 04 2024 15:10:13 GMT-0500 (Central Daylight Time) 762505.1       O     None           2003       55              1   109.bmp        -120        -120   110.bmp         120        -120   111.bmp        -120         120   112.bmp         120         120    10030.6   752474.5       7004              yes   SM         A      112.bmp            120            120               228107                  222085                 230111               224099         756601.0            750579.0           758606.0         752594.0     55
 2   0   1   0   0       32  test        1        0                m Wed Sep 04 2024 15:10:13 GMT-0500 (Central Daylight Time) 772207.0       O        z           1657       56              1   113.bmp        -120        -120   114.bmp         120        -120   115.bmp        -120         120   116.bmp         120         120     9695.3   762511.7       7004               no   SM         A      113.bmp            120           -120               228107                  222085                 230111               224099         766638.0            760616.0           768641.0         762631.0     56
 4   0   0   0   1       32  test        1        0                m Wed Sep 04 2024 15:10:13 GMT-0500 (Central Daylight Time) 781658.7       O        z           1418       57              1   117.bmp        -120        -120   118.bmp         120        -120   119.bmp        -120         120   120.bmp         120         120     9446.8   772211.9       7004               no   SM         A      118.bmp            120            120               228107                  222085                 230111               224099         776340.0            770316.0           778344.0         772332.0     57
 3   0   0   1   0       33  test        1        1                z Wed Sep 04 2024 15:10:13 GMT-0500 (Central Daylight Time) 790659.3       O        z            958       58              1   121.bmp        -120        -120   122.bmp         120        -120   123.bmp        -120         120   124.bmp         120         120     8993.9   781665.4       7004              yes   SM         A      123.bmp           -120            120               228107                  222085                 230111               224099         785791.0            779770.0           787796.0         781784.0     58
 2   0   1   0   0       33  test        1        0                m Wed Sep 04 2024 15:10:13 GMT-0500 (Central Daylight Time) 800245.0       O        z           1550       59              1   125.bmp        -120        -120   126.bmp         120        -120   127.bmp        -120         120   128.bmp         120         120     9580.4   790664.6       7004               no   SM         A      128.bmp            120           -120               228107                  222085                 230111               224099         794793.0            788769.0           796796.0         790784.0     59
 1   1   0   0   0       34  test        1        1                z Wed Sep 04 2024 15:10:13 GMT-0500 (Central Daylight Time) 809245.7       O        z            957       60              1   129.bmp        -120        -120   130.bmp         120        -120   131.bmp        -120         120   132.bmp         120         120     8995.1   800250.6       7004              yes   SM         A      129.bmp           -120           -120               228107                  222085                 230111               224099         804377.0            798355.0           806382.0         800370.0     60
 2   0   1   0   0       35  test        1        1                z Wed Sep 04 2024 15:10:13 GMT-0500 (Central Daylight Time) 818229.9       O        z            940       61              1   133.bmp        -120        -120   134.bmp         120        -120   135.bmp        -120         120   136.bmp         120         120     8977.3   809252.6       7004              yes   SM         A      134.bmp            120           -120               228107                  222085                 230111               224099         813378.0            807357.0           815382.0         809371.0     61
 4   0   0   0   1       36  test        1        1                z Wed Sep 04 2024 15:10:13 GMT-0500 (Central Daylight Time) 828083.0       O        z           1811       62              1   141.bmp        -120        -120   142.bmp         120        -120   143.bmp        -120         120   144.bmp         120         120     9846.6   818236.4       7004              yes   SM         A      144.bmp            120            120               228107                  222085                 230111               224099         822362.0            816341.0           824367.0         818355.0     62
 1   1   0   0   0       37  test        1        1                m Wed Sep 04 2024 15:10:13 GMT-0500 (Central Daylight Time) 837167.0       O        m           1039       63              1   145.bmp        -120        -120   146.bmp         120        -120   147.bmp        -120         120   148.bmp         120         120     9077.6   828089.4       7004               no   SM         A      145.bmp           -120            120               228107                  222085                 230111               224099         832215.0            826194.0           834219.0         828207.0     63
 2   0   1   0   0       38  test        1        1                z Wed Sep 04 2024 15:10:13 GMT-0500 (Central Daylight Time) 846017.3       O        z            801       64              1   149.bmp        -120        -120   150.bmp         120        -120   112.bmp        -120         120   101.bmp         120         120     8843.2   837174.1       7004              yes   SM         A      150.bmp            120           -120               228107                  222085                 230111               224099         841300.0            835278.0           843304.0         837292.0     64
 4   0   0   0   1       38  test        1        0                m Wed Sep 04 2024 15:10:13 GMT-0500 (Central Daylight Time) 855652.5       O        z           1592       65              1   102.bmp        -120        -120   103.bmp         120        -120   104.bmp        -120         120   105.bmp         120         120     9629.0   846023.5       7004               no   SM         A      104.bmp            120            120               228107                  222085                 230111               224099         850149.0            844128.0           852154.0         846143.0     65
 3   0   0   1   0       39  test        1        1                m Wed Sep 04 2024 15:10:13 GMT-0500 (Central Daylight Time) 864871.0       O        m           1172       66              1   106.bmp        -120        -120   107.bmp         120        -120   108.bmp        -120         120   109.bmp         120         120     9213.1   855657.9       7004               no   SM         A      109.bmp           -120            120               228107                  222085                 230111               224099         859786.0            853762.0           861790.0         855778.0     66
 2   0   1   0   0       39  test        1        0                m Wed Sep 04 2024 15:10:13 GMT-0500 (Central Daylight Time) 874221.7       O        z           1314       67              1   137.bmp        -120        -120   138.bmp         120        -120   139.bmp        -120         120   140.bmp         120         120     9342.4   864879.3       7004               no   SM         A      139.bmp            120           -120               228107                  222085                 230111               224099         869003.0            862984.0           871008.0         864996.0     67
 3   0   0   1   0       39  test        1        0                z Wed Sep 04 2024 15:10:13 GMT-0500 (Central Daylight Time) 883640.2       O        m           1371       68              1   110.bmp        -120        -120   111.bmp         120        -120   112.bmp        -120         120   113.bmp         120         120     9413.0   874227.2       7004              yes   SM         A      112.bmp           -120            120               228107                  222085                 230111               224099         878355.0            872332.0           880358.0         874348.0     68
 1   1   0   0   0       39  test        1        0                m Wed Sep 04 2024 15:10:13 GMT-0500 (Central Daylight Time) 893026.8       O        z           1336       69              1   114.bmp        -120        -120   115.bmp         120        -120   116.bmp        -120         120   117.bmp         120         120     9381.4   883645.4       7004               no   SM         A      115.bmp           -120           -120               228107                  222085                 230111               224099         887774.0            881750.0           889778.0         883766.0     69
 2   0   1   0   0       39  test        1        0                m Wed Sep 04 2024 15:10:13 GMT-0500 (Central Daylight Time) 902627.4       O        z           1559       70              1   118.bmp        -120        -120   119.bmp         120        -120   120.bmp        -120         120   121.bmp         120         120     9592.2   893035.2       7004               no   SM         A      120.bmp            120           -120               228107                  222085                 230111               224099         897157.0            891140.0           899163.0         893150.0     70
 4   0   0   0   1       39  test        1        0                z Wed Sep 04 2024 15:10:13 GMT-0500 (Central Daylight Time) 912146.1       O        m           1477       71              1   122.bmp        -120        -120   123.bmp         120        -120   124.bmp        -120         120   125.bmp         120         120     9511.4   902634.7       7004              yes   SM         A      125.bmp            120            120               228107                  222085                 230111               224099         906760.0            900739.0           908765.0         902752.0     71
 1   1   0   0   0       40  test        1        1                z Wed Sep 04 2024 15:10:13 GMT-0500 (Central Daylight Time) 921298.8       O        z           1119       72              1   126.bmp        -120        -120   127.bmp         120        -120   128.bmp        -120         120   129.bmp         120         120     9145.7   912153.1       7004              yes   SM         A      126.bmp           -120           -120               228107                  222085                 230111               224099         916279.0            910258.0           918283.0         912271.0     72
 2   0   1   0   0       41  test        1        1                z Wed Sep 04 2024 15:10:13 GMT-0500 (Central Daylight Time) 930732.0       O        z           1400       73              1   130.bmp        -120        -120   131.bmp         120        -120   132.bmp        -120         120   133.bmp         120         120     9425.1   921306.9       7004              yes   SM         A      131.bmp            120           -120               228107                  222085                 230111               224099         925430.0            919411.0           927434.0         921422.0     73
 4   0   0   0   1       41  test        1        0                m Wed Sep 04 2024 15:10:13 GMT-0500 (Central Daylight Time) 940751.8       O        z           1973       74              1   134.bmp        -120        -120   135.bmp         120        -120   136.bmp        -120         120   137.bmp         120         120    10014.6   930737.2       7004               no   SM         A      136.bmp            120            120               228107                  222085                 230111               224099         934865.0            928841.0           936869.0         930857.0     74
 2   0   1   0   0       42  test        1        1                m Wed Sep 04 2024 15:10:13 GMT-0500 (Central Daylight Time) 949736.1       O        m            946       75              1   138.bmp        -120        -120   139.bmp         120        -120   140.bmp        -120         120   141.bmp         120         120     8977.3   940758.8       7004               no   SM         A      141.bmp            120           -120               228107                  222085                 230111               224099         944884.0            938863.0           946888.0         940877.0     75
 1   1   0   0   0       43  test        1        1                z Wed Sep 04 2024 15:10:13 GMT-0500 (Central Daylight Time) 958502.6       O        z            729       76              1   142.bmp        -120        -120   143.bmp         120        -120   144.bmp        -120         120   145.bmp         120         120     8758.9   949743.7       7004              yes   SM         A      142.bmp           -120           -120               228107                  222085                 230111               224099         953870.0            947848.0           955873.0         949861.0     76
 3   0   0   1   0       44  test        1        1                z Wed Sep 04 2024 15:10:13 GMT-0500 (Central Daylight Time) 968472.0       O        z           1930       77              1   150.bmp        -120        -120   111.bmp         120        -120   101.bmp        -120         120   102.bmp         120         120     9962.1   958509.9       7004              yes   SM         A      101.bmp           -120            120               228107                  222085                 230111               224099         962635.0            956614.0           964639.0         958628.0     77
 1   1   0   0   0       45  test        1        1                m Wed Sep 04 2024 15:10:13 GMT-0500 (Central Daylight Time) 978124.2       O        m           1615       78              1   146.bmp        -120        -120   147.bmp         120        -120   148.bmp        -120         120   149.bmp         120         120     9645.3   968478.9       7004               no   SM         A      147.bmp           -120           -120               228107                  222085                 230111               224099         972605.0            966583.0           974611.0         968597.0     78
 4   0   0   0   1       46  test        1        1                m Wed Sep 04 2024 15:10:13 GMT-0500 (Central Daylight Time) 987776.2       O        m           1612       79              1   107.bmp        -120        -120   108.bmp         120        -120   109.bmp        -120         120   110.bmp         120         120     9641.8   978134.4       7004               no   SM         A      107.bmp            120            120               228107                  222085                 230111               224099         982257.0            976239.0           984262.0         978250.0     79
 3   0   0   1   0       47  test        1        1                m Wed Sep 04 2024 15:10:13 GMT-0500 (Central Daylight Time) 997128.3       O        m           1305       80              1   103.bmp        -120        -120   104.bmp         120        -120   105.bmp        -120         120   106.bmp         120         120     9346.9   987781.4       7004               no   SM         A      106.bmp           -120            120               228107                  222085                 230111               224099         991909.0            985886.0           993913.0         987902.0     80