 Q  Q1  Q2  Q3  Q4  acc_sum block  block_c  correct correct_response                                                  datetime  endtime project response  response_time  row_sel session_number squiggle1  squiggle1x  squiggle1y squiggle2  squiggle2x  squiggle2y squiggle3  squiggle3x  squiggle3y squiggle4  squiggle4x  squiggle4y  start_end  starttime subject_id target_congruent task task_vers testsquiggle  testsquigglex  testsquiggley  time_practice_delay  time_practice_fixation  time_practice_stimuli  time_practice_study  time_test_delay  time_test_fixation  time_test_stimuli  time_test_study  trial
 1   1   0   0   0        0  prac        1        0                z Fri Sep 20 2024 18:12:05 GMT-0500 (Central Daylight Time) 130858.8       I        m           1505        1              1    16.bmp        -120        -120    17.bmp         120        -120    18.bmp        -120         120    19.bmp         120         120    10326.7   120532.1       8006              yes   SM         B       16.bmp           -120           -120               121212                  115184                 123229               117197              NaN                 NaN                NaN              NaN      1
 3   0   0   1   0        1  prac        1        1                m Fri Sep 20 2024 18:12:05 GMT-0500 (Central Daylight Time) 141355.5       I        m           1679        2              1    20.bmp        -120        -120    21.bmp         120        -120    22.bmp        -120         120    23.bmp         120         120    10492.8   130862.7       8006               no   SM         B       23.bmp           -120            120               131542                  125515                 133559               127527              NaN                 NaN                NaN              NaN      2
 4   0   0   0   1        2  prac        1        1                m Fri Sep 20 2024 18:12:05 GMT-0500 (Central Daylight Time) 150852.5       I        m            671        3              1    24.bmp        -120        -120    25.bmp         120        -120    26.bmp        -120         120    27.bmp         120         120     9494.0   141358.5       8006               no   SM         B       24.bmp            120            120               142039                  136011                 144055               138024              NaN                 NaN                NaN              NaN      3
 2   0   1   0   0        3  prac        1        1                z Fri Sep 20 2024 18:12:05 GMT-0500 (Central Daylight Time) 160816.1       I        z           1134        4              1    28.bmp        -120        -120    29.bmp         120        -120    30.bmp        -120         120    31.bmp         120         120     9960.2   150855.9       8006              yes   SM         B       29.bmp            120           -120               151536                  145508                 153552               147521              NaN                 NaN                NaN              NaN      4
 3   0   0   1   0        4  prac        1        1                z Fri Sep 20 2024 18:12:05 GMT-0500 (Central Daylight Time) 170779.8       I        z           1146        5              1    32.bmp        -120        -120    33.bmp         120        -120    34.bmp        -120         120    35.bmp         120         120     9960.5   160819.3       8006              yes   SM         B       34.bmp           -120            120               161500                  155472                 163516               157484              NaN                 NaN                NaN              NaN      5
 1   1   0   0   0        4  prac        1        0                m Fri Sep 20 2024 18:12:05 GMT-0500 (Central Daylight Time) 180426.5       I        z            823        6              1    36.bmp        -120        -120    37.bmp         120        -120    38.bmp        -120         120    39.bmp         120         120     9643.2   170783.3       8006               no   SM         B       39.bmp           -120           -120               171463                  165436                 173479               167448              NaN                 NaN                NaN              NaN      6
 2   0   1   0   0        5  prac        1        1                m Fri Sep 20 2024 18:12:05 GMT-0500 (Central Daylight Time) 190373.6       I        m           1128        7              1    40.bmp        -120        -120    41.bmp         120        -120    42.bmp        -120         120    43.bmp         120         120     9943.8   180429.8       8006               no   SM         B       40.bmp            120           -120               181110                  175082                 183126               177095              NaN                 NaN                NaN              NaN      7
 4   0   0   0   1        5  prac        1        0                z Fri Sep 20 2024 18:12:05 GMT-0500 (Central Daylight Time) 201170.2       I        m           1974        8              1    44.bmp        -120        -120    45.bmp         120        -120    46.bmp        -120         120    47.bmp         120         120    10792.7   190377.5       8006              yes   SM         B       47.bmp            120            120               191057                  185030                 193073               187042              NaN                 NaN                NaN              NaN      8
 4   0   0   0   1        1  test        1        1                m Fri Sep 20 2024 18:12:05 GMT-0500 (Central Daylight Time) 227728.4       I        m           1235        1              1    48.bmp        -120        -120    49.bmp         120        -120    50.bmp        -120         120    43.bmp         120         120     9294.7   218433.7       8006              yes   SM         B       50.bmp            120            120               191057                  185030                 193073               187042         219115.0            213086.0           221131.0         215100.0      1
 2   0   1   0   0        2  test        1        1                m Fri Sep 20 2024 18:12:05 GMT-0500 (Central Daylight Time) 237142.2       I        m           1362        2              1     1.bmp        -120        -120     2.bmp         120        -120     3.bmp        -120         120     4.bmp         120         120     9410.6   227731.6       8006              yes   SM         B        3.bmp            120           -120               191057                  185030                 193073               187042         228412.0            222384.0           230428.0         224397.0      2
 1   1   0   0   0        3  test        1        1                z Fri Sep 20 2024 18:12:05 GMT-0500 (Central Daylight Time) 246755.8       I        z           1556        3              1     5.bmp        -120        -120     6.bmp         120        -120     7.bmp        -120         120     8.bmp         120         120     9610.4   237145.4       8006              yes   SM         B        5.bmp           -120           -120               191057                  185030                 193073               187042         237826.0            231798.0           239842.0         233811.0      3
 3   0   0   1   0        3  test        1        0                m Fri Sep 20 2024 18:12:05 GMT-0500 (Central Daylight Time) 256052.9       I        z           1247        4              1     9.bmp        -120        -120    10.bmp         120        -120    11.bmp        -120         120    12.bmp         120         120     9293.7   246759.2       8006              yes   SM         B        9.bmp           -120            120               191057                  185030                 193073               187042         247439.0            241411.0           249455.0         243424.0      4
 2   0   1   0   0        4  test        1        1                z Fri Sep 20 2024 18:12:05 GMT-0500 (Central Daylight Time) 265066.7       I        z            965        5              1    13.bmp        -120        -120    14.bmp         120        -120    15.bmp        -120         120    16.bmp         120         120     9010.6   256056.1       8006              yes   SM         B       14.bmp            120           -120               191057                  185030                 193073               187042         256736.0            250708.0           258753.0         252721.0      5
 3   0   0   1   0        5  test        1        1                z Fri Sep 20 2024 18:12:05 GMT-0500 (Central Daylight Time) 274130.8       I        z           1000        6              1    17.bmp        -120        -120    18.bmp         120        -120    19.bmp        -120         120    20.bmp         120         120     9060.9   265069.9       8006              yes   SM         B       19.bmp           -120            120               191057                  185030                 193073               187042         265751.0            259722.0           267766.0         261735.0      6
 4   0   0   0   1        6  test        1        1                z Fri Sep 20 2024 18:12:05 GMT-0500 (Central Daylight Time) 283444.4       I        z           1256        7              1    21.bmp        -120        -120    22.bmp         120        -120    23.bmp        -120         120    24.bmp         120         120     9310.7   274133.7       8006              yes   SM         B       24.bmp            120            120               191057                  185030                 193073               187042         274814.0            268786.0           276830.0         270799.0      7
 2   0   1   0   0        7  test        1        1                m Fri Sep 20 2024 18:12:05 GMT-0500 (Central Daylight Time) 292591.3       I        m           1095        8              1    25.bmp        -120        -120    26.bmp         120        -120    27.bmp        -120         120    28.bmp         120         120     9144.0   283447.3       8006              yes   SM         B       25.bmp            120           -120               191057                  185030                 193073               187042         284128.0            278100.0           286144.0         280113.0      8
 3   0   0   1   0        8  test        1        1                m Fri Sep 20 2024 18:12:05 GMT-0500 (Central Daylight Time) 302382.8       I        m           1744        9              1    29.bmp        -120        -120    30.bmp         120        -120    31.bmp        -120         120    32.bmp         120         120     9788.3   292594.5       8006              yes   SM         B       30.bmp           -120            120               191057                  185030                 193073               187042         293275.0            287247.0           295291.0         289260.0      9
 4   0   0   0   1        9  test        1        1                z Fri Sep 20 2024 18:12:05 GMT-0500 (Central Daylight Time) 312151.9       I        z           1720       10              1    37.bmp        -120        -120    38.bmp         120        -120    39.bmp        -120         120    40.bmp         120         120     9765.3   302386.6       8006              yes   SM         B       40.bmp            120            120               191057                  185030                 193073               187042         303055.0            297039.0           305071.0         299040.0     10
 3   0   0   1   0       10  test        1        1                z Fri Sep 20 2024 18:12:05 GMT-0500 (Central Daylight Time) 321249.1       I        z           1034       11              1    33.bmp        -120        -120    34.bmp         120        -120    35.bmp        -120         120    36.bmp         120         120     9093.8   312155.3       8006              yes   SM         B       35.bmp           -120            120               191057                  185030                 193073               187042         312837.0            306808.0           314852.0         308820.0     11
 2   0   1   0   0       11  test        1        1                m Fri Sep 20 2024 18:12:05 GMT-0500 (Central Daylight Time) 330313.1       I        m           1001       12              1    41.bmp        -120        -120    42.bmp         120        -120    43.bmp        -120         120    44.bmp         120         120     9060.8   321252.3       8006              yes   SM         B       41.bmp            120           -120               191057                  185030                 193073               187042         321933.0            315905.0           323949.0         317917.0     12
 3   0   0   1   0       12  test        1        1                m Fri Sep 20 2024 18:12:05 GMT-0500 (Central Daylight Time) 340093.2       I        m           1721       13              1    45.bmp        -120        -120    46.bmp         120        -120    47.bmp        -120         120    48.bmp         120         120     9777.1   330316.1       8006              yes   SM         B       46.bmp           -120            120               191057                  185030                 193073               187042         330997.0            324968.0           333013.0         326981.0     13
 1   1   0   0   0       13  test        1        1                z Fri Sep 20 2024 18:12:05 GMT-0500 (Central Daylight Time) 349456.5       I        z           1310       14              1    49.bmp        -120        -120    50.bmp         120        -120     4.bmp        -120         120     1.bmp         120         120     9360.2   340096.3       8006              yes   SM         B       49.bmp           -120           -120               191057                  185030                 193073               187042         340777.0            334748.0           342793.0         336762.0     14
 4   0   0   0   1       13  test        1        0                m Fri Sep 20 2024 18:12:05 GMT-0500 (Central Daylight Time) 358720.7       I        z           1209       15              1    10.bmp        -120        -120    11.bmp         120        -120    12.bmp        -120         120    13.bmp         120         120     9258.7   349462.0       8006              yes   SM         B       11.bmp            120            120               191057                  185030                 193073               187042         350141.0            344114.0           352157.0         346125.0     15
 1   1   0   0   0       14  test        1        1                m Fri Sep 20 2024 18:12:05 GMT-0500 (Central Daylight Time) 368101.1       I        m           1322       16              1     2.bmp        -120        -120     3.bmp         120        -120     4.bmp        -120         120     5.bmp         120         120     9377.3   358723.8       8006              yes   SM         B        5.bmp           -120           -120               191057                  185030                 193073               187042         359404.0            353376.0           361421.0         355389.0     16
 3   0   0   1   0       14  test        1        0                m Fri Sep 20 2024 18:12:05 GMT-0500 (Central Daylight Time) 378164.8       I     None           2016       17              1    22.bmp        -120        -120    23.bmp         120        -120    24.bmp        -120         120    25.bmp         120         120    10060.8   368104.0       8006              yes   SM         B       22.bmp           -120            120               191057                  185030                 193073               187042         368785.0            362756.0           370801.0         364769.0     17
 1   1   0   0   0       15  test        1        1                z Fri Sep 20 2024 18:12:05 GMT-0500 (Central Daylight Time) 387378.2       I        z           1150       18              1     6.bmp        -120        -120     7.bmp         120        -120     8.bmp        -120         120     9.bmp         120         120     9210.3   378167.9       8006              yes   SM         B        6.bmp           -120           -120               191057                  185030                 193073               187042         378848.0            372820.0           380864.0         374833.0     18
 2   0   1   0   0       16  test        1        1                z Fri Sep 20 2024 18:12:05 GMT-0500 (Central Daylight Time) 396658.6       I        z           1231       19              1    26.bmp        -120        -120    27.bmp         120        -120    28.bmp        -120         120    29.bmp         120         120     9277.1   387381.5       8006              yes   SM         B       27.bmp            120           -120               191057                  185030                 193073               187042         388062.0            382034.0           390079.0         384047.0     19
 3   0   0   1   0       17  test        1        1                z Fri Sep 20 2024 18:12:05 GMT-0500 (Central Daylight Time) 405972.8       I        z           1256       20              1    30.bmp        -120        -120    31.bmp         120        -120    32.bmp        -120         120    33.bmp         120         120     9310.3   396662.5       8006              yes   SM         B       32.bmp           -120            120               191057                  185030                 193073               187042         397343.0            391315.0           399359.0         393327.0     20
 1   1   0   0   0       17  test        1        0                m Fri Sep 20 2024 18:12:05 GMT-0500 (Central Daylight Time) 416036.1       I     None           2015       21              1    14.bmp        -120        -120    15.bmp         120        -120    16.bmp        -120         120    17.bmp         120         120    10060.2   405975.9       8006              yes   SM         B       16.bmp           -120           -120               191057                  185030                 193073               187042         406656.0            400628.0           408672.0         402641.0     21
 4   0   0   0   1       18  test        1        1                z Fri Sep 20 2024 18:12:05 GMT-0500 (Central Daylight Time) 425433.2       I        z           1334       22              1    18.bmp        -120        -120    19.bmp         120        -120    20.bmp        -120         120    21.bmp         120         120     9393.9   416039.3       8006              yes   SM         B       21.bmp            120            120               191057                  185030                 193073               187042         416720.0            410691.0           418736.0         412704.0     22
 1   1   0   0   0       19  test        1        1                m Fri Sep 20 2024 18:12:05 GMT-0500 (Central Daylight Time) 434680.1       I        m           1186       23              1    34.bmp        -120        -120    35.bmp         120        -120    36.bmp        -120         120    37.bmp         120         120     9244.0   425436.1       8006              yes   SM         B       37.bmp           -120           -120               191057                  185030                 193073               187042         426117.0            420088.0           428133.0         422102.0     23
 2   0   1   0   0       20  test        1        1                z Fri Sep 20 2024 18:12:05 GMT-0500 (Central Daylight Time) 443760.3       I        z           1026       24              1    42.bmp        -120        -120    43.bmp         120        -120    44.bmp        -120         120    45.bmp         120         120     9077.3   434683.0       8006              yes   SM         B       43.bmp            120           -120               191057                  185030                 193073               187042         435364.0            429335.0           437380.0         431348.0     24
 4   0   0   0   1       21  test        1        1                m Fri Sep 20 2024 18:12:05 GMT-0500 (Central Daylight Time) 452824.4       I        m           1011       25              1    46.bmp        -120        -120    47.bmp         120        -120    48.bmp        -120         120    49.bmp         120         120     9061.4   443763.0       8006              yes   SM         B       48.bmp            120            120               191057                  185030                 193073               187042         444444.0            438415.0           446460.0         440429.0     25
 1   1   0   0   0       22  test        1        1                z Fri Sep 20 2024 18:12:05 GMT-0500 (Central Daylight Time) 461704.9       I        z            827       26              1    38.bmp        -120        -120    39.bmp         120        -120    40.bmp        -120         120    41.bmp         120         120     8877.5   452827.4       8006              yes   SM         B       38.bmp           -120           -120               191057                  185030                 193073               187042         453508.0            447480.0           455524.0         449493.0     26
 4   0   0   0   1       23  test        1        1                z Fri Sep 20 2024 18:12:05 GMT-0500 (Central Daylight Time) 470735.7       I        z            978       27              1    50.bmp        -120        -120    11.bmp         120        -120     1.bmp        -120         120     2.bmp         120         120     9027.3   461708.4       8006              yes   SM         B        2.bmp            120            120               191057                  185030                 193073               187042         462388.0            456360.0           464405.0         458373.0     27
 3   0   0   1   0       23  test        1        0                m Fri Sep 20 2024 18:12:05 GMT-0500 (Central Daylight Time) 479682.5       I        z            890       28              1     3.bmp        -120        -120     4.bmp         120        -120     5.bmp        -120         120     6.bmp         120         120     8941.7   470740.8       8006              yes   SM         B        3.bmp           -120            120               191057                  185030                 193073               187042         471419.0            465393.0           473436.0         467404.0     28
 2   0   1   0   0       24  test        1        1                z Fri Sep 20 2024 18:12:05 GMT-0500 (Central Daylight Time) 488646.6       I        z            912       29              1     7.bmp        -120        -120     8.bmp         120        -120     9.bmp        -120         120    10.bmp         120         120     8960.8   479685.8       8006              yes   SM         B        8.bmp            120           -120               191057                  185030                 193073               187042         480366.0            474338.0           482383.0         476351.0     29
 3   0   0   1   0       25  test        1        1                z Fri Sep 20 2024 18:12:05 GMT-0500 (Central Daylight Time) 497277.3       I        z            588       30              1    11.bmp        -120        -120    12.bmp         120        -120    13.bmp        -120         120    14.bmp         120         120     8627.6   488649.7       8006              yes   SM         B       13.bmp           -120            120               191057                  185030                 193073               187042         489313.0            483302.0           491330.0         485309.0     30
 1   1   0   0   0       26  test        1        1                z Fri Sep 20 2024 18:12:05 GMT-0500 (Central Daylight Time) 506407.6       I        z           1078       31              1    15.bmp        -120        -120    16.bmp         120        -120    17.bmp        -120         120    18.bmp         120         120     9127.1   497280.5       8006              yes   SM         B       15.bmp           -120           -120               191057                  185030                 193073               187042         497961.0            491933.0           499977.0         493946.0     31
 2   0   1   0   0       27  test        1        1                m Fri Sep 20 2024 18:12:05 GMT-0500 (Central Daylight Time) 516271.2       I        m           1811       32              1    19.bmp        -120        -120    20.bmp         120        -120    21.bmp        -120         120    22.bmp         120         120     9860.4   506410.8       8006              yes   SM         B       19.bmp            120           -120               191057                  185030                 193073               187042         507091.0            501063.0           509108.0         503076.0     32
 4   0   0   0   1       28  test        1        1                z Fri Sep 20 2024 18:12:05 GMT-0500 (Central Daylight Time) 525451.5       I        z           1123       33              1    31.bmp        -120        -120    32.bmp         120        -120    33.bmp        -120         120    34.bmp         120         120     9177.3   516274.2       8006              yes   SM         B       34.bmp            120            120               191057                  185030                 193073               187042         516955.0            510926.0           518971.0         512940.0     33
 2   0   1   0   0       29  test        1        1                z Fri Sep 20 2024 18:12:05 GMT-0500 (Central Daylight Time) 534748.7       I        z           1239       34              1    23.bmp        -120        -120    24.bmp         120        -120    25.bmp        -120         120    26.bmp         120         120     9294.4   525454.3       8006              yes   SM         B       24.bmp            120           -120               191057                  185030                 193073               187042         526135.0            520107.0           528151.0         522120.0     34
 4   0   0   0   1       30  test        1        1                m Fri Sep 20 2024 18:12:05 GMT-0500 (Central Daylight Time) 543896.0       I        m           1085       35              1    27.bmp        -120        -120    28.bmp         120        -120    29.bmp        -120         120    30.bmp         120         120     9143.9   534752.1       8006              yes   SM         B       29.bmp            120            120               191057                  185030                 193073               187042         535433.0            529404.0           537448.0         531417.0     35
 3   0   0   1   0       31  test        1        1                m Fri Sep 20 2024 18:12:05 GMT-0500 (Central Daylight Time) 553009.7       I        m           1059       36              1    35.bmp        -120        -120    36.bmp         120        -120    37.bmp        -120         120    38.bmp         120         120     9110.7   543899.0       8006              yes   SM         B       35.bmp           -120            120               191057                  185030                 193073               187042         544580.0            538551.0           546596.0         540564.0     36
 1   1   0   0   0       32  test        1        1                m Fri Sep 20 2024 18:12:05 GMT-0500 (Central Daylight Time) 562173.6       I        m           1060       37              1    39.bmp        -120        -120    40.bmp         120        -120    41.bmp        -120         120    42.bmp         120         120     9161.1   553012.5       8006              yes   SM         B       40.bmp           -120           -120               191057                  185030                 193073               187042         553693.0            547665.0           555755.0         549678.0     37
 2   0   1   0   0       33  test        1        1                m Fri Sep 20 2024 18:12:05 GMT-0500 (Central Daylight Time) 571253.9       I        m           1022       38              1    43.bmp        -120        -120    44.bmp         120        -120    45.bmp        -120         120    46.bmp         120         120     9077.1   562176.8       8006              yes   SM         B       45.bmp            120           -120               191057                  185030                 193073               187042         562857.0            556829.0           564873.0         558842.0     38
 4   0   0   0   1       34  test        1        1                z Fri Sep 20 2024 18:12:05 GMT-0500 (Central Daylight Time) 580517.7       I        z           1212       39              1    47.bmp        -120        -120    48.bmp         120        -120    49.bmp        -120         120    50.bmp         120         120     9261.0   571256.7       8006              yes   SM         B       50.bmp            120            120               191057                  185030                 193073               187042         571938.0            565909.0           573954.0         567922.0     39
 3   0   0   1   0       35  test        1        1                m Fri Sep 20 2024 18:12:05 GMT-0500 (Central Daylight Time) 589465.0       I        m            893       40              1     4.bmp        -120        -120     5.bmp         120        -120     6.bmp        -120         120     7.bmp         120         120     8944.2   580520.8       8006              yes   SM         B        5.bmp           -120            120               191057                  185030                 193073               187042         581201.0            575173.0           583218.0         577187.0     40
 1   1   0   0   0       36  test        1        1                z Fri Sep 20 2024 18:12:05 GMT-0500 (Central Daylight Time) 598545.4       I        z           1018       41              1     8.bmp        -120        -120     9.bmp         120        -120    10.bmp        -120         120    11.bmp         120         120     9077.6   589467.8       8006              yes   SM         B        8.bmp           -120           -120               191057                  185030                 193073               187042         590148.0            584120.0           592165.0         586133.0     41
 4   0   0   0   1       37  test        1        1                z Fri Sep 20 2024 18:12:05 GMT-0500 (Central Daylight Time) 607675.9       I        z           1081       42              1    12.bmp        -120        -120    13.bmp         120        -120    14.bmp        -120         120    15.bmp         120         120     9127.9   598548.0       8006              yes   SM         B       15.bmp            120            120               191057                  185030                 193073               187042         599229.0            593200.0           601245.0         595214.0     42
 1   1   0   0   0       38  test        1        1                z Fri Sep 20 2024 18:12:05 GMT-0500 (Central Daylight Time) 616573.2       I        z            839       43              1    16.bmp        -120        -120    17.bmp         120        -120    18.bmp        -120         120    19.bmp         120         120     8894.7   607678.5       8006              yes   SM         B       16.bmp           -120           -120               191057                  185030                 193073               187042         608360.0            602331.0           610376.0         604344.0     43
 4   0   0   0   1       39  test        1        1                m Fri Sep 20 2024 18:12:05 GMT-0500 (Central Daylight Time) 625636.9       I        m           1006       44              1     4.bmp        -120        -120     1.bmp         120        -120     2.bmp        -120         120     3.bmp         120         120     9060.7   616576.2       8006              yes   SM         B        4.bmp            120            120               191057                  185030                 193073               187042         617257.0            611228.0           619273.0         613241.0     44
 1   1   0   0   0       40  test        1        1                m Fri Sep 20 2024 18:12:05 GMT-0500 (Central Daylight Time) 634601.8       I        m            901       45              1    28.bmp        -120        -120    29.bmp         120        -120    30.bmp        -120         120    31.bmp         120         120     8961.9   625639.9       8006              yes   SM         B       31.bmp           -120           -120               191057                  185030                 193073               187042         626334.0            620292.0           628338.0         622305.0     45
 1   1   0   0   0       41  test        1        1                m Fri Sep 20 2024 18:12:05 GMT-0500 (Central Daylight Time) 643548.1       I        m            897       46              1    20.bmp        -120        -120    21.bmp         120        -120    22.bmp        -120         120    23.bmp         120         120     8942.9   634605.2       8006              yes   SM         B       21.bmp           -120           -120               191057                  185030                 193073               187042         635285.0            629258.0           637301.0         631269.0     46
 3   0   0   1   0       42  test        1        1                z Fri Sep 20 2024 18:12:05 GMT-0500 (Central Daylight Time) 653045.0       I        z           1439       47              1    24.bmp        -120        -120    25.bmp         120        -120    26.bmp        -120         120    27.bmp         120         120     9494.1   643550.9       8006              yes   SM         B       26.bmp           -120            120               191057                  185030                 193073               187042         644231.0            638203.0           646248.0         640216.0     47
 3   0   0   1   0       43  test        1        1                z Fri Sep 20 2024 18:12:05 GMT-0500 (Central Daylight Time) 662158.7       I        z           1062       48              1    40.bmp        -120        -120    41.bmp         120        -120    42.bmp        -120         120    43.bmp         120         120     9110.5   653048.2       8006              yes   SM         B       42.bmp           -120            120               191057                  185030                 193073               187042         653729.0            647700.0           655745.0         649713.0     48
 2   0   1   0   0       44  test        1        1                z Fri Sep 20 2024 18:12:05 GMT-0500 (Central Daylight Time) 671555.6       I        z           1348       49              1    36.bmp        -120        -120    37.bmp         120        -120    38.bmp        -120         120    39.bmp         120         120     9393.7   662161.9       8006              yes   SM         B       37.bmp            120           -120               191057                  185030                 193073               187042         662843.0            656814.0           664859.0         658827.0     49
 3   0   0   1   0       44  test        1        0                m Fri Sep 20 2024 18:12:05 GMT-0500 (Central Daylight Time) 681036.2       I        z           1423       50              1    32.bmp        -120        -120    33.bmp         120        -120    34.bmp        -120         120    35.bmp         120         120     9477.6   671558.6       8006              yes   SM         B       32.bmp           -120            120               191057                  185030                 193073               187042         672239.0            666211.0           674256.0         668224.0     50
 2   0   1   0   0       45  test        1        1                z Fri Sep 20 2024 18:12:05 GMT-0500 (Central Daylight Time) 690301.1       I        z           1215       51              1    44.bmp        -120        -120    45.bmp         120        -120    46.bmp        -120         120    47.bmp         120         120     9261.7   681039.4       8006              yes   SM         B       45.bmp            120           -120               191057                  185030                 193073               187042         681720.0            675692.0           683736.0         677705.0     51
 4   0   0   0   1       46  test        1        1                m Fri Sep 20 2024 18:12:05 GMT-0500 (Central Daylight Time) 699480.4       I        m           1127       52              1    48.bmp        -120        -120    49.bmp         120        -120    50.bmp        -120         120    31.bmp         120         120     9176.2   690304.2       8006              yes   SM         B       48.bmp            120            120               191057                  185030                 193073               187042         690984.0            684956.0           693000.0         686968.0     52
 3   0   0   1   0       47  test        1        1                z Fri Sep 20 2024 18:12:05 GMT-0500 (Central Daylight Time) 708527.6       I        z            987       53              1     1.bmp        -120        -120     2.bmp         120        -120     3.bmp        -120         120     4.bmp         120         120     9044.3   699483.3       8006              yes   SM         B        3.bmp           -120            120               191057                  185030                 193073               187042         700164.0            694135.0           702180.0         696149.0     53
 1   1   0   0   0       47  test        1        0                m Fri Sep 20 2024 18:12:05 GMT-0500 (Central Daylight Time) 718157.9       I        z           1572       54              1     5.bmp        -120        -120     6.bmp         120        -120     7.bmp        -120         120     8.bmp         120         120     9626.2   708531.7       8006              yes   SM         B        7.bmp           -120           -120               191057                  185030                 193073               187042         709211.0            703184.0           711227.0         705196.0     54
 4   0   0   0   1       48  test        1        1                z Fri Sep 20 2024 18:12:05 GMT-0500 (Central Daylight Time) 727305.1       I        z           1093       55              1     9.bmp        -120        -120    10.bmp         120        -120    11.bmp        -120         120    12.bmp         120         120     9144.4   718160.7       8006              yes   SM         B       12.bmp            120            120               191057                  185030                 193073               187042         718841.0            712813.0           720858.0         714826.0     55
 2   0   1   0   0       49  test        1        1                m Fri Sep 20 2024 18:12:05 GMT-0500 (Central Daylight Time) 736385.7       I        m           1026       56              1    13.bmp        -120        -120    14.bmp         120        -120    15.bmp        -120         120    16.bmp         120         120     9077.7   727308.0       8006              yes   SM         B       13.bmp            120           -120               191057                  185030                 193073               187042         727989.0            721960.0           730005.0         723974.0     56
 4   0   0   0   1       49  test        1        0                m Fri Sep 20 2024 18:12:05 GMT-0500 (Central Daylight Time) 745349.4       I        z            906       57              1    17.bmp        -120        -120    18.bmp         120        -120    19.bmp        -120         120    20.bmp         120         120     8961.0   736388.4       8006              yes   SM         B       18.bmp            120            120               191057                  185030                 193073               187042         737069.0            731041.0           739085.0         733054.0     57
 3   0   0   1   0       50  test        1        1                z Fri Sep 20 2024 18:12:05 GMT-0500 (Central Daylight Time) 754563.2       I        z           1158       58              1    21.bmp        -120        -120    22.bmp         120        -120    23.bmp        -120         120    24.bmp         120         120     9210.7   745352.5       8006              yes   SM         B       23.bmp           -120            120               191057                  185030                 193073               187042         746033.0            740005.0           748049.0         742018.0     58
 2   0   1   0   0       50  test        1        0                m Fri Sep 20 2024 18:12:05 GMT-0500 (Central Daylight Time) 764593.3       I        z           1968       59              1    25.bmp        -120        -120    26.bmp         120        -120    27.bmp        -120         120    28.bmp         120         120    10027.0   754566.3       8006              yes   SM         B       28.bmp            120           -120               191057                  185030                 193073               187042         755247.0            749218.0           757263.0         751231.0     59
 1   1   0   0   0       51  test        1        1                z Fri Sep 20 2024 18:12:05 GMT-0500 (Central Daylight Time) 773873.7       I        z           1226       60              1    29.bmp        -120        -120    30.bmp         120        -120    31.bmp        -120         120    32.bmp         120         120     9277.0   764596.7       8006              yes   SM         B       29.bmp           -120           -120               191057                  185030                 193073               187042         765277.0            759249.0           767293.0         761262.0     60
 2   0   1   0   0       52  test        1        1                z Fri Sep 20 2024 18:12:05 GMT-0500 (Central Daylight Time) 782870.8       I        z            945       61              1    33.bmp        -120        -120    34.bmp         120        -120    35.bmp        -120         120    36.bmp         120         120     8994.2   773876.6       8006              yes   SM         B       34.bmp            120           -120               191057                  185030                 193073               187042         774557.0            768529.0           776574.0         770542.0     61
 4   0   0   0   1       53  test        1        1                z Fri Sep 20 2024 18:12:05 GMT-0500 (Central Daylight Time) 792034.7       I        z           1100       62              1    41.bmp        -120        -120    42.bmp         120        -120    43.bmp        -120         120    44.bmp         120         120     9161.2   782873.5       8006              yes   SM         B       44.bmp            120            120               191057                  185030                 193073               187042         783555.0            777526.0           785571.0         779539.0     62
 1   1   0   0   0       53  test        1        0                m Fri Sep 20 2024 18:12:05 GMT-0500 (Central Daylight Time) 801881.7       I        z           1785       63              1    45.bmp        -120        -120    46.bmp         120        -120    47.bmp        -120         120    48.bmp         120         120     9844.1   792037.6       8006              yes   SM         B       45.bmp           -120            120               191057                  185030                 193073               187042         792718.0            786690.0           794734.0         788704.0     63
 2   0   1   0   0       54  test        1        1                z Fri Sep 20 2024 18:12:05 GMT-0500 (Central Daylight Time) 811079.0       I        z           1137       64              1    49.bmp        -120        -120    50.bmp         120        -120    12.bmp        -120         120     1.bmp         120         120     9194.4   801884.6       8006              yes   SM         B       50.bmp            120           -120               191057                  185030                 193073               187042         802565.0            796537.0           804582.0         798550.0     64
 4   0   0   0   1       54  test        1        0                m Fri Sep 20 2024 18:12:05 GMT-0500 (Central Daylight Time) 821142.4       I     None           2015       65              1     2.bmp        -120        -120     3.bmp         120        -120     4.bmp        -120         120     5.bmp         120         120    10060.6   811081.8       8006              yes   SM         B        4.bmp            120            120               191057                  185030                 193073               187042         811762.0            805734.0           813779.0         807747.0     65
 3   0   0   1   0       55  test        1        1                m Fri Sep 20 2024 18:12:05 GMT-0500 (Central Daylight Time) 830306.1       I        m           1101       66              1     6.bmp        -120        -120     7.bmp         120        -120     8.bmp        -120         120     9.bmp         120         120     9160.6   821145.5       8006              yes   SM         B        9.bmp           -120            120               191057                  185030                 193073               187042         821826.0            815798.0           823842.0         817811.0     66
 2   0   1   0   0       56  test        1        1                m Fri Sep 20 2024 18:12:05 GMT-0500 (Central Daylight Time) 839336.7       I        m            969       67              1    37.bmp        -120        -120    38.bmp         120        -120    39.bmp        -120         120    40.bmp         120         120     9027.6   830309.1       8006              yes   SM         B       39.bmp            120           -120               191057                  185030                 193073               187042         830990.0            824961.0           833006.0         826974.0     67
 3   0   0   1   0       57  test        1        1                z Fri Sep 20 2024 18:12:05 GMT-0500 (Central Daylight Time) 848267.0       I        z            882       68              1    10.bmp        -120        -120    11.bmp         120        -120    12.bmp        -120         120    13.bmp         120         120     8927.7   839339.3       8006              yes   SM         B       12.bmp           -120            120               191057                  185030                 193073               187042         840020.0            833992.0           842036.0         836005.0     68
 1   1   0   0   0       58  test        1        1                m Fri Sep 20 2024 18:12:05 GMT-0500 (Central Daylight Time) 857764.1       I        m           1440       69              1    14.bmp        -120        -120    15.bmp         120        -120    16.bmp        -120         120    17.bmp         120         120     9494.5   848269.6       8006              yes   SM         B       15.bmp           -120           -120               191057                  185030                 193073               187042         848951.0            842922.0           850967.0         844936.0     69
 2   0   1   0   0       59  test        1        1                m Fri Sep 20 2024 18:12:05 GMT-0500 (Central Daylight Time) 866945.4       I        m           1119       70              1    18.bmp        -120        -120    19.bmp         120        -120    20.bmp        -120         120    21.bmp         120         120     9178.4   857767.0       8006              yes   SM         B       20.bmp            120           -120               191057                  185030                 193073               187042         858448.0            852419.0           860464.0         854433.0     70
 4   0   0   0   1       60  test        1        1                z Fri Sep 20 2024 18:12:05 GMT-0500 (Central Daylight Time) 876458.2       I        z           1459       71              1    22.bmp        -120        -120    23.bmp         120        -120    24.bmp        -120         120    25.bmp         120         120     9510.0   866948.2       8006              yes   SM         B       25.bmp            120            120               191057                  185030                 193073               187042         867628.0            861600.0           869644.0         863613.0     71
 1   1   0   0   0       61  test        1        1                z Fri Sep 20 2024 18:12:05 GMT-0500 (Central Daylight Time) 885605.4       I        z           1089       72              1    26.bmp        -120        -120    27.bmp         120        -120    28.bmp        -120         120    29.bmp         120         120     9144.3   876461.1       8006              yes   SM         B       26.bmp           -120           -120               191057                  185030                 193073               187042         877142.0            871113.0           879158.0         873127.0     72
 2   0   1   0   0       62  test        1        1                z Fri Sep 20 2024 18:12:05 GMT-0500 (Central Daylight Time) 894869.2       I        z           1214       73              1    30.bmp        -120        -120    31.bmp         120        -120    32.bmp        -120         120    33.bmp         120         120     9260.9   885608.3       8006              yes   SM         B       31.bmp            120           -120               191057                  185030                 193073               187042         886289.0            880260.0           888305.0         882274.0     73
 4   0   0   0   1       63  test        1        1                m Fri Sep 20 2024 18:12:05 GMT-0500 (Central Daylight Time) 904599.6       I        m           1670       74              1    34.bmp        -120        -120    35.bmp         120        -120    36.bmp        -120         120    37.bmp         120         120     9727.3   894872.3       8006              yes   SM         B       36.bmp            120            120               191057                  185030                 193073               187042         895553.0            889524.0           897569.0         891537.0     74
 2   0   1   0   0       63  test        1        0                m Fri Sep 20 2024 18:12:05 GMT-0500 (Central Daylight Time) 913846.7       I        z           1188       75              1    38.bmp        -120        -120    39.bmp         120        -120    40.bmp        -120         120    41.bmp         120         120     9243.9   904602.8       8006              yes   SM         B       41.bmp            120           -120               191057                  185030                 193073               187042         905283.0            899255.0           907299.0         901268.0     75
 1   1   0   0   0       64  test        1        1                z Fri Sep 20 2024 18:12:05 GMT-0500 (Central Daylight Time) 922843.7       I        z            941       76              1    42.bmp        -120        -120    43.bmp         120        -120    44.bmp        -120         120    45.bmp         120         120     8994.1   913849.6       8006              yes   SM         B       42.bmp           -120           -120               191057                  185030                 193073               187042         914530.0            908502.0           916546.0         910515.0     76
 3   0   0   1   0       65  test        1        1                z Fri Sep 20 2024 18:12:05 GMT-0500 (Central Daylight Time) 931840.9       I        z            935       77              1    50.bmp        -120        -120    11.bmp         120        -120     1.bmp        -120         120     2.bmp         120         120     8994.1   922846.8       8006              yes   SM         B        1.bmp           -120            120               191057                  185030                 193073               187042         923527.0            917499.0           925544.0         919513.0     77
 1   1   0   0   0       66  test        1        1                m Fri Sep 20 2024 18:12:05 GMT-0500 (Central Daylight Time) 941188.0       I        m           1307       78              1    46.bmp        -120        -120    47.bmp         120        -120    48.bmp        -120         120    49.bmp         120         120     9344.0   931844.0       8006              yes   SM         B       47.bmp           -120           -120               191057                  185030                 193073               187042         932519.0            926496.0           934524.0         928509.0     78
 4   0   0   0   1       67  test        1        1                m Fri Sep 20 2024 18:12:05 GMT-0500 (Central Daylight Time) 950451.7       I        m           1207       79              1     7.bmp        -120        -120     8.bmp         120        -120     9.bmp        -120         120    10.bmp         120         120     9256.2   941195.5       8006              yes   SM         B        7.bmp            120            120               191057                  185030                 193073               187042         941873.0            935848.0           943888.0         937856.0     79
 3   0   0   1   0       68  test        1        1                m Fri Sep 20 2024 18:12:05 GMT-0500 (Central Daylight Time) 959848.8       I        m           1336       80              1     3.bmp        -120        -120     4.bmp         120        -120     5.bmp        -120         120     6.bmp         120         120     9393.9   950454.9       8006              yes   SM         B        6.bmp           -120            120               191057                  185030                 193073               187042         951136.0            945107.0           953151.0         947120.0     80