 Q  Q1  Q2  Q3  Q4  acc_sum block  block_c  correct correct_response                                                  datetime  endtime project response  response_time  row_sel session_number squiggle1  squiggle1x  squiggle1y squiggle2  squiggle2x  squiggle2y squiggle3  squiggle3x  squiggle3y squiggle4  squiggle4x  squiggle4y  start_end  starttime subject_id target_congruent task task_vers testsquiggle  testsquigglex  testsquiggley  time_practice_delay  time_practice_fixation  time_practice_stimuli  time_practice_study  time_test_delay  time_test_fixation  time_test_stimuli  time_test_study  trial
 1   1   0   0   0        1  prac        1        1                z Fri Oct 11 2024 14:24:25 GMT-0500 (Central Daylight Time) 125561.6       O        z           1640        1              1    66.bmp        -120        -120    67.bmp         120        -120    68.bmp        -120         120    69.bmp         120         120    10460.5   115101.1       7024              yes   SM         C       66.bmp           -120           -120               119382                  113353                 121398               115366              NaN                 NaN                NaN              NaN      1
 3   0   0   1   0        2  prac        1        1                m Fri Oct 11 2024 14:24:25 GMT-0500 (Central Daylight Time) 135958.5       O        m           1577        2              1    70.bmp        -120        -120    71.bmp         120        -120    72.bmp        -120         120    73.bmp         120         120    10393.6   125564.9       7024               no   SM         C       73.bmp           -120            120               129845                  123817                 131861               125830              NaN                 NaN                NaN              NaN      2
 4   0   0   0   1        3  prac        1        1                m Fri Oct 11 2024 14:24:25 GMT-0500 (Central Daylight Time) 145971.8       O        m           1188        3              1    74.bmp        -120        -120    75.bmp         120        -120    76.bmp        -120         120    77.bmp         120         120    10009.5   135962.3       7024               no   SM         C       74.bmp            120            120               140242                  134214                 142258               136227              NaN                 NaN                NaN              NaN      3
 2   0   1   0   0        4  prac        1        1                z Fri Oct 11 2024 14:24:25 GMT-0500 (Central Daylight Time) 156035.3       O        z           1245        4              1    78.bmp        -120        -120    79.bmp         120        -120    80.bmp        -120         120    81.bmp         120         120    10060.0   145975.3       7024              yes   SM         C       79.bmp            120           -120               150255                  144228                 152273               146240              NaN                 NaN                NaN              NaN      4
 3   0   0   1   0        5  prac        1        1                z Fri Oct 11 2024 14:24:25 GMT-0500 (Central Daylight Time) 166532.2       O        z           1679        5              1    82.bmp        -120        -120    83.bmp         120        -120    84.bmp        -120         120    85.bmp         120         120    10493.6   156038.6       7024              yes   SM         C       84.bmp           -120            120               160319                  154291                 162335               156304              NaN                 NaN                NaN              NaN      5
 1   1   0   0   0        6  prac        1        1                m Fri Oct 11 2024 14:24:25 GMT-0500 (Central Daylight Time) 176579.0       O        m           1230        6              1    86.bmp        -120        -120    87.bmp         120        -120    88.bmp        -120         120    89.bmp         120         120    10043.5   166535.5       7024               no   SM         C       89.bmp           -120           -120               170815                  164788                 172832               166800              NaN                 NaN                NaN              NaN      6
 2   0   1   0   0        7  prac        1        1                m Fri Oct 11 2024 14:24:25 GMT-0500 (Central Daylight Time) 186925.8       O        m           1527        7              1    90.bmp        -120        -120    91.bmp         120        -120    92.bmp        -120         120    93.bmp         120         120    10343.7   176582.1       7024               no   SM         C       90.bmp            120           -120               180862                  174834                 182879               176848              NaN                 NaN                NaN              NaN      7
 4   0   0   0   1        8  prac        1        1                z Fri Oct 11 2024 14:24:25 GMT-0500 (Central Daylight Time) 197622.2       O        z           1877        8              1    94.bmp        -120        -120    95.bmp         120        -120    96.bmp        -120         120    97.bmp         120         120    10692.6   186929.6       7024              yes   SM         C       97.bmp            120            120               191209                  185182                 193225               187194              NaN                 NaN                NaN              NaN      8
 4   0   0   0   1        1  test        1        1                m Fri Oct 11 2024 14:24:25 GMT-0500 (Central Daylight Time) 221964.5       O        m           1289        1              1    98.bmp        -120        -120    99.bmp         120        -120   100.bmp        -120         120    93.bmp         120         120     9344.5   212620.0       7024              yes   SM         C      100.bmp            120            120               191209                  185182                 193225               187194         216901.0            210872.0           218917.0         212886.0      1
 2   0   1   0   0        2  test        1        1                m Fri Oct 11 2024 14:24:25 GMT-0500 (Central Daylight Time) 231844.9       O        m           1822        2              1    51.bmp        -120        -120    52.bmp         120        -120    53.bmp        -120         120    54.bmp         120         120     9877.2   221967.7       7024              yes   SM         C       53.bmp            120           -120               191209                  185182                 193225               187194         226248.0            220220.0           228264.0         222233.0      2
 1   1   0   0   0        3  test        1        1                z Fri Oct 11 2024 14:24:25 GMT-0500 (Central Daylight Time) 240908.6       O        z           1013        3              1    55.bmp        -120        -120    56.bmp         120        -120    57.bmp        -120         120    58.bmp         120         120     9060.7   231847.9       7024              yes   SM         C       55.bmp           -120           -120               191209                  185182                 193225               187194         236129.0            230100.0           238144.0         232113.0      3
 3   0   0   1   0        4  test        1        1                m Fri Oct 11 2024 14:24:25 GMT-0500 (Central Daylight Time) 250255.7       O        m           1284        4              1    59.bmp        -120        -120    60.bmp         120        -120    61.bmp        -120         120    62.bmp         120         120     9343.8   240911.9       7024              yes   SM         C       59.bmp           -120            120               191209                  185182                 193225               187194         245192.0            239164.0           247210.0         241177.0      4
 2   0   1   0   0        5  test        1        1                z Fri Oct 11 2024 14:24:25 GMT-0500 (Central Daylight Time) 259502.7       O        z           1187        5              1    63.bmp        -120        -120    64.bmp         120        -120    65.bmp        -120         120    66.bmp         120         120     9243.4   250259.3       7024              yes   SM         C       64.bmp            120           -120               191209                  185182                 193225               187194         254539.0            248512.0           256555.0         250524.0      5
 3   0   0   1   0        5  test        1        0                z Fri Oct 11 2024 14:24:25 GMT-0500 (Central Daylight Time) 269199.8       O        m           1643        6              1    67.bmp        -120        -120    68.bmp         120        -120    69.bmp        -120         120    70.bmp         120         120     9693.8   259506.0       7024              yes   SM         C       69.bmp           -120            120               191209                  185182                 193225               187194         263786.0            257758.0           265803.0         259771.0      6
 4   0   0   0   1        6  test        1        1                z Fri Oct 11 2024 14:24:25 GMT-0500 (Central Daylight Time) 278163.7       O        z            906        7              1    71.bmp        -120        -120    72.bmp         120        -120    73.bmp        -120         120    74.bmp         120         120     8960.8   269202.9       7024              yes   SM         C       74.bmp            120            120               191209                  185182                 193225               187194         273483.0            267455.0           275500.0         269468.0      7
 2   0   1   0   0        7  test        1        1                m Fri Oct 11 2024 14:24:25 GMT-0500 (Central Daylight Time) 287527.3       O        m           1303        8              1    75.bmp        -120        -120    76.bmp         120        -120    77.bmp        -120         120    78.bmp         120         120     9360.6   278166.7       7024              yes   SM         C       75.bmp            120           -120               191209                  185182                 193225               187194         282447.0            276419.0           284463.0         278432.0      8
 3   0   0   1   0        8  test        1        1                m Fri Oct 11 2024 14:24:25 GMT-0500 (Central Daylight Time) 296641.0       O        m           1051        9              1    79.bmp        -120        -120    80.bmp         120        -120    81.bmp        -120         120    82.bmp         120         120     9110.7   287530.3       7024              yes   SM         C       80.bmp           -120            120               191209                  185182                 193225               187194         291811.0            285782.0           293827.0         287796.0      9
 4   0   0   0   1        9  test        1        1                z Fri Oct 11 2024 14:24:25 GMT-0500 (Central Daylight Time) 306504.7       O        z           1809       10              1    87.bmp        -120        -120    88.bmp         120        -120    89.bmp        -120         120    90.bmp         120         120     9859.2   296645.5       7024              yes   SM         C       90.bmp            120            120               191209                  185182                 193225               187194         300925.0            294898.0           302941.0         296910.0     10
 3   0   0   1   0       10  test        1        1                z Fri Oct 11 2024 14:24:25 GMT-0500 (Central Daylight Time) 315685.2       O        z           1120       11              1    83.bmp        -120        -120    84.bmp         120        -120    85.bmp        -120         120    86.bmp         120         120     9177.0   306508.2       7024              yes   SM         C       85.bmp           -120            120               191209                  185182                 193225               187194         310788.0            304760.0           312806.0         306773.0     11
 2   0   1   0   0       10  test        1        0                m Fri Oct 11 2024 14:24:25 GMT-0500 (Central Daylight Time) 325748.7       O     None           2016       12              1    91.bmp        -120        -120    92.bmp         120        -120    93.bmp        -120         120    94.bmp         120         120    10060.5   315688.2       7024              yes   SM         C       91.bmp            120           -120               191209                  185182                 193225               187194         319969.0            313940.0           321985.0         315954.0     12
 3   0   0   1   0       11  test        1        1                m Fri Oct 11 2024 14:24:25 GMT-0500 (Central Daylight Time) 335512.2       O        m           1701       13              1    95.bmp        -120        -120    96.bmp         120        -120    97.bmp        -120         120    98.bmp         120         120     9760.0   325752.2       7024              yes   SM         C       96.bmp           -120            120               191209                  185182                 193225               187194         330032.0            324004.0           332049.0         326018.0     13
 1   1   0   0   0       11  test        1        0                z Fri Oct 11 2024 14:24:25 GMT-0500 (Central Daylight Time) 344910.5       O        m           1338       14              1    99.bmp        -120        -120   100.bmp         120        -120    54.bmp        -120         120    51.bmp         120         120     9394.6   335515.9       7024              yes   SM         C       99.bmp           -120           -120               191209                  185182                 193225               187194         339796.0            333768.0           341812.0         335781.0     14
 4   0   0   0   1       12  test        1        1                m Fri Oct 11 2024 14:24:25 GMT-0500 (Central Daylight Time) 353790.1       O        m            821       15              1    60.bmp        -120        -120    61.bmp         120        -120    62.bmp        -120         120    63.bmp         120         120     8875.5   344914.6       7024              yes   SM         C       61.bmp            120            120               191209                  185182                 193225               187194         349193.0            343167.0           351209.0         345178.0     15
 1   1   0   0   0       13  test        1        1                m Fri Oct 11 2024 14:24:25 GMT-0500 (Central Daylight Time) 362770.4       O        m            932       16              1    52.bmp        -120        -120    53.bmp         120        -120    54.bmp        -120         120    55.bmp         120         120     8976.9   353793.5       7024              yes   SM         C       55.bmp           -120           -120               191209                  185182                 193225               187194         358073.0            352046.0           360090.0         354058.0     16
 3   0   0   1   0       13  test        1        0                m Fri Oct 11 2024 14:24:25 GMT-0500 (Central Daylight Time) 372683.8       O        z           1863       17              1    72.bmp        -120        -120    73.bmp         120        -120    74.bmp        -120         120    75.bmp         120         120     9909.9   362773.9       7024              yes   SM         C       72.bmp           -120            120               191209                  185182                 193225               187194         367054.0            361026.0           369071.0         363039.0     17
 1   1   0   0   0       14  test        1        1                z Fri Oct 11 2024 14:24:25 GMT-0500 (Central Daylight Time) 382164.4       O        z           1422       18              1    56.bmp        -120        -120    57.bmp         120        -120    58.bmp        -120         120    59.bmp         120         120     9477.6   372686.8       7024              yes   SM         C       56.bmp           -120           -120               191209                  185182                 193225               187194         376968.0            370939.0           378984.0         372952.0     18
 2   0   1   0   0       15  test        1        1                z Fri Oct 11 2024 14:24:25 GMT-0500 (Central Daylight Time) 391928.0       O        z           1702       19              1    76.bmp        -120        -120    77.bmp         120        -120    78.bmp        -120         120    79.bmp         120         120     9760.5   382167.5       7024              yes   SM         C       77.bmp            120           -120               191209                  185182                 193225               187194         386448.0            380420.0           388464.0         382433.0     19
 3   0   0   1   0       15  test        1        0                z Fri Oct 11 2024 14:24:25 GMT-0500 (Central Daylight Time) 401991.6       O     None           2016       20              1    80.bmp        -120        -120    81.bmp         120        -120    82.bmp        -120         120    83.bmp         120         120    10059.8   391931.8       7024              yes   SM         C       82.bmp           -120            120               191209                  185182                 193225               187194         396212.0            390184.0           398228.0         392197.0     20
 1   1   0   0   0       15  test        1        0                m Fri Oct 11 2024 14:24:25 GMT-0500 (Central Daylight Time) 412055.2       O     None           2016       21              1    64.bmp        -120        -120    65.bmp         120        -120    66.bmp        -120         120    67.bmp         120         120    10060.7   401994.5       7024              yes   SM         C       66.bmp           -120           -120               191209                  185182                 193225               187194         406275.0            400247.0           408291.0         402260.0     21
 4   0   0   0   1       15  test        1        0                z Fri Oct 11 2024 14:24:25 GMT-0500 (Central Daylight Time) 421851.9       O        m           1739       22              1    68.bmp        -120        -120    69.bmp         120        -120    70.bmp        -120         120    71.bmp         120         120     9793.8   412058.1       7024              yes   SM         C       71.bmp            120            120               191209                  185182                 193225               187194         416339.0            410310.0           418355.0         412323.0     22
 1   1   0   0   0       16  test        1        1                m Fri Oct 11 2024 14:24:25 GMT-0500 (Central Daylight Time) 431132.4       O        m           1230       23              1    84.bmp        -120        -120    85.bmp         120        -120    86.bmp        -120         120    87.bmp         120         120     9277.3   421855.1       7024              yes   SM         C       87.bmp           -120           -120               191209                  185182                 193225               187194         426135.0            420107.0           428152.0         422121.0     23
 2   0   1   0   0       17  test        1        1                z Fri Oct 11 2024 14:24:25 GMT-0500 (Central Daylight Time) 440647.2       O        z           1462       24              1    92.bmp        -120        -120    93.bmp         120        -120    94.bmp        -120         120    95.bmp         120         120     9511.7   431135.5       7024              yes   SM         C       93.bmp            120           -120               191209                  185182                 193225               187194         435417.0            429388.0           437432.0         431401.0     24
 4   0   0   0   1       18  test        1        1                m Fri Oct 11 2024 14:24:25 GMT-0500 (Central Daylight Time) 449826.5       O        m           1116       25              1    96.bmp        -120        -120    97.bmp         120        -120    98.bmp        -120         120    99.bmp         120         120     9176.2   440650.3       7024              yes   SM         C       98.bmp            120            120               191209                  185182                 193225               187194         444930.0            438903.0           446946.0         440915.0     25
 1   1   0   0   0       19  test        1        1                z Fri Oct 11 2024 14:24:25 GMT-0500 (Central Daylight Time) 458757.1       O        z            872       26              1    88.bmp        -120        -120    89.bmp         120        -120    90.bmp        -120         120    91.bmp         120         120     8927.5   449829.6       7024              yes   SM         C       88.bmp           -120           -120               191209                  185182                 193225               187194         454110.0            448082.0           456126.0         450095.0     26
 4   0   0   0   1       20  test        1        1                z Fri Oct 11 2024 14:24:25 GMT-0500 (Central Daylight Time) 468137.4       O        z           1317       27              1   100.bmp        -120        -120    61.bmp         120        -120    51.bmp        -120         120    52.bmp         120         120     9376.9   458760.5       7024              yes   SM         C       52.bmp            120            120               191209                  185182                 193225               187194         463041.0            457013.0           465057.0         459027.0     27
 3   0   0   1   0       21  test        1        1                m Fri Oct 11 2024 14:24:25 GMT-0500 (Central Daylight Time) 477384.4       O        m           1193       28              1    53.bmp        -120        -120    54.bmp         120        -120    55.bmp        -120         120    56.bmp         120         120     9243.9   468140.5       7024              yes   SM         C       53.bmp           -120            120               191209                  185182                 193225               187194         472421.0            466393.0           474437.0         468407.0     28
 2   0   1   0   0       22  test        1        1                z Fri Oct 11 2024 14:24:25 GMT-0500 (Central Daylight Time) 486515.0       O        z           1074       29              1    57.bmp        -120        -120    58.bmp         120        -120    59.bmp        -120         120    60.bmp         120         120     9126.8   477388.2       7024              yes   SM         C       58.bmp            120           -120               191209                  185182                 193225               187194         481668.0            475640.0           483684.0         477653.0     29
 3   0   0   1   0       23  test        1        1                z Fri Oct 11 2024 14:24:25 GMT-0500 (Central Daylight Time) 495845.4       O        z           1271       30              1    61.bmp        -120        -120    62.bmp         120        -120    63.bmp        -120         120    64.bmp         120         120     9326.8   486518.6       7024              yes   SM         C       63.bmp           -120            120               191209                  185182                 193225               187194         490799.0            484771.0           492815.0         486784.0     30
 1   1   0   0   0       24  test        1        1                z Fri Oct 11 2024 14:24:25 GMT-0500 (Central Daylight Time) 505293.7       O        z           1397       31              1    65.bmp        -120        -120    66.bmp         120        -120    67.bmp        -120         120    68.bmp         120         120     9445.2   495848.5       7024              yes   SM         C       65.bmp           -120           -120               191209                  185182                 193225               187194         500129.0            494101.0           502145.0         496114.0     31
 2   0   1   0   0       25  test        1        1                m Fri Oct 11 2024 14:24:25 GMT-0500 (Central Daylight Time) 514556.0       O        m           1214       32              1    69.bmp        -120        -120    70.bmp         120        -120    71.bmp        -120         120    72.bmp         120         120     9259.3   505296.7       7024              yes   SM         C       69.bmp            120           -120               191209                  185182                 193225               187194         509576.0            503549.0           511592.0         505561.0     32
 4   0   0   0   1       26  test        1        1                z Fri Oct 11 2024 14:24:25 GMT-0500 (Central Daylight Time) 523720.2       O        z           1110       33              1    81.bmp        -120        -120    82.bmp         120        -120    83.bmp        -120         120    84.bmp         120         120     9161.0   514559.2       7024              yes   SM         C       84.bmp            120            120               191209                  185182                 193225               187194         518840.0            512811.0           520856.0         514825.0     33
 2   0   1   0   0       27  test        1        1                z Fri Oct 11 2024 14:24:25 GMT-0500 (Central Daylight Time) 532833.9       O        z           1050       34              1    73.bmp        -120        -120    74.bmp         120        -120    75.bmp        -120         120    76.bmp         120         120     9110.9   523723.0       7024              yes   SM         C       74.bmp            120           -120               191209                  185182                 193225               187194         528004.0            521975.0           530020.0         523988.0     34
 4   0   0   0   1       28  test        1        1                m Fri Oct 11 2024 14:24:25 GMT-0500 (Central Daylight Time) 542081.0       O        m           1185       35              1    77.bmp        -120        -120    78.bmp         120        -120    79.bmp        -120         120    80.bmp         120         120     9244.0   532837.0       7024              yes   SM         C       79.bmp            120            120               191209                  185182                 193225               187194         537117.0            531089.0           539133.0         533102.0     35
 3   0   0   1   0       29  test        1        1                m Fri Oct 11 2024 14:24:25 GMT-0500 (Central Daylight Time) 551961.0       O        m           1825       36              1    85.bmp        -120        -120    86.bmp         120        -120    87.bmp        -120         120    88.bmp         120         120     9876.9   542084.1       7024              yes   SM         C       85.bmp           -120            120               191209                  185182                 193225               187194         546364.0            540336.0           548381.0         542349.0     36
 1   1   0   0   0       30  test        1        1                m Fri Oct 11 2024 14:24:25 GMT-0500 (Central Daylight Time) 561258.2       O        m           1249       37              1    89.bmp        -120        -120    90.bmp         120        -120    91.bmp        -120         120    92.bmp         120         120     9293.4   551964.8       7024              yes   SM         C       90.bmp           -120           -120               191209                  185182                 193225               187194         556245.0            550217.0           558261.0         552230.0     37
 2   0   1   0   0       31  test        1        1                m Fri Oct 11 2024 14:24:25 GMT-0500 (Central Daylight Time) 570955.3       O        m           1640       38              1    93.bmp        -120        -120    94.bmp         120        -120    95.bmp        -120         120    96.bmp         120         120     9694.2   561261.1       7024              yes   SM         C       95.bmp            120           -120               191209                  185182                 193225               187194         565542.0            559513.0           567558.0         561527.0     38
 4   0   0   0   1       32  test        1        1                z Fri Oct 11 2024 14:24:25 GMT-0500 (Central Daylight Time) 580368.7       O        z           1351       39              1    97.bmp        -120        -120    98.bmp         120        -120    99.bmp        -120         120   100.bmp         120         120     9410.6   570958.1       7024              yes   SM         C      100.bmp            120            120               191209                  185182                 193225               187194         575239.0            569210.0           577255.0         571223.0     39
 3   0   0   1   0       33  test        1        1                m Fri Oct 11 2024 14:24:25 GMT-0500 (Central Daylight Time) 589599.3       O        m           1177       40              1    54.bmp        -120        -120    55.bmp         120        -120    56.bmp        -120         120    57.bmp         120         120     9226.8   580372.5       7024              yes   SM         C       55.bmp           -120            120               191209                  185182                 193225               187194         584653.0            578625.0           586669.0         580637.0     40
 1   1   0   0   0       34  test        1        1                z Fri Oct 11 2024 14:24:25 GMT-0500 (Central Daylight Time) 598763.1       O        z           1107       41              1    58.bmp        -120        -120    59.bmp         120        -120    60.bmp        -120         120    61.bmp         120         120     9160.8   589602.3       7024              yes   SM         C       58.bmp           -120           -120               191209                  185182                 193225               187194         593883.0            587854.0           595899.0         589868.0     41
 4   0   0   0   1       35  test        1        1                z Fri Oct 11 2024 14:24:25 GMT-0500 (Central Daylight Time) 607876.7       O        z           1063       42              1    62.bmp        -120        -120    63.bmp         120        -120    64.bmp        -120         120    65.bmp         120         120     9110.9   598765.8       7024              yes   SM         C       65.bmp            120            120               191209                  185182                 193225               187194         603047.0            597018.0           605063.0         599031.0     42
 1   1   0   0   0       36  test        1        1                z Fri Oct 11 2024 14:24:25 GMT-0500 (Central Daylight Time) 617540.6       O        z           1613       43              1    66.bmp        -120        -120    67.bmp         120        -120    68.bmp        -120         120    69.bmp         120         120     9661.2   607879.4       7024              yes   SM         C       66.bmp           -120           -120               191209                  185182                 193225               187194         612161.0            606132.0           614177.0         608145.0     43
 4   0   0   0   1       37  test        1        1                m Fri Oct 11 2024 14:24:25 GMT-0500 (Central Daylight Time) 626571.3       O        m            974       44              1    54.bmp        -120        -120    51.bmp         120        -120    52.bmp        -120         120    53.bmp         120         120     9027.8   617543.5       7024              yes   SM         C       54.bmp            120            120               191209                  185182                 193225               187194         621824.0            615796.0           623840.0         617809.0     44
 1   1   0   0   0       38  test        1        1                m Fri Oct 11 2024 14:24:25 GMT-0500 (Central Daylight Time) 635901.5       O        m           1271       45              1    78.bmp        -120        -120    79.bmp         120        -120    80.bmp        -120         120    81.bmp         120         120     9326.8   626574.7       7024              yes   SM         C       81.bmp           -120           -120               191209                  185182                 193225               187194         630854.0            624827.0           632871.0         626839.0     45
 1   1   0   0   0       39  test        1        1                m Fri Oct 11 2024 14:24:25 GMT-0500 (Central Daylight Time) 645148.7       O        m           1189       46              1    70.bmp        -120        -120    71.bmp         120        -120    72.bmp        -120         120    73.bmp         120         120     9243.6   635905.1       7024              yes   SM         C       71.bmp           -120           -120               191209                  185182                 193225               187194         640185.0            634157.0           642201.0         636170.0     46
 3   0   0   1   0       40  test        1        1                z Fri Oct 11 2024 14:24:25 GMT-0500 (Central Daylight Time) 654428.9       O        z           1230       47              1    74.bmp        -120        -120    75.bmp         120        -120    76.bmp        -120         120    77.bmp         120         120     9277.1   645151.8       7024              yes   SM         C       76.bmp           -120            120               191209                  185182                 193225               187194         649433.0            643404.0           651448.0         645417.0     47
 3   0   0   1   0       41  test        1        1                z Fri Oct 11 2024 14:24:25 GMT-0500 (Central Daylight Time) 663792.9       O        z           1309       48              1    90.bmp        -120        -120    91.bmp         120        -120    92.bmp        -120         120    93.bmp         120         120     9361.0   654431.9       7024              yes   SM         C       92.bmp           -120            120               191209                  185182                 193225               187194         658713.0            652684.0           660729.0         654697.0     48
 2   0   1   0   0       42  test        1        1                z Fri Oct 11 2024 14:24:25 GMT-0500 (Central Daylight Time) 673573.1       O        z           1729       49              1    86.bmp        -120        -120    87.bmp         120        -120    88.bmp        -120         120    89.bmp         120         120     9776.6   663796.5       7024              yes   SM         C       87.bmp            120           -120               191209                  185182                 193225               187194         668076.0            662049.0           670093.0         664061.0     49
 3   0   0   1   0       42  test        1        0                m Fri Oct 11 2024 14:24:25 GMT-0500 (Central Daylight Time) 683136.9       O        z           1509       50              1    82.bmp        -120        -120    83.bmp         120        -120    84.bmp        -120         120    85.bmp         120         120     9560.8   673576.1       7024              yes   SM         C       82.bmp           -120            120               191209                  185182                 193225               187194         677857.0            671828.0           679873.0         673841.0     50
 2   0   1   0   0       42  test        1        0                z Fri Oct 11 2024 14:24:25 GMT-0500 (Central Daylight Time) 693200.1       O     None           2015       51              1    94.bmp        -120        -120    95.bmp         120        -120    96.bmp        -120         120    97.bmp         120         120    10060.2   683139.9       7024              yes   SM         C       95.bmp            120           -120               191209                  185182                 193225               187194         687420.0            681392.0           689437.0         683405.0     51
 4   0   0   0   1       43  test        1        1                m Fri Oct 11 2024 14:24:25 GMT-0500 (Central Daylight Time) 702430.8       O        m           1170       52              1    98.bmp        -120        -120    99.bmp         120        -120   100.bmp        -120         120    81.bmp         120         120     9227.7   693203.1       7024              yes   SM         C       98.bmp            120            120               191209                  185182                 193225               187194         697484.0            691455.0           699500.0         693468.0     52
 3   0   0   1   0       44  test        1        1                z Fri Oct 11 2024 14:24:25 GMT-0500 (Central Daylight Time) 711627.8       O        z           1138       53              1    51.bmp        -120        -120    52.bmp         120        -120    53.bmp        -120         120    54.bmp         120         120     9193.7   702434.1       7024              yes   SM         C       53.bmp           -120            120               191209                  185182                 193225               187194         706714.0            700686.0           708732.0         702699.0     53
 1   1   0   0   0       45  test        1        1                m Fri Oct 11 2024 14:24:25 GMT-0500 (Central Daylight Time) 720842.6       O        m           1159       54              1    55.bmp        -120        -120    56.bmp         120        -120    57.bmp        -120         120    58.bmp         120         120     9211.5   711631.1       7024              yes   SM         C       57.bmp           -120           -120               191209                  185182                 193225               187194         715912.0            709883.0           717927.0         711896.0     54
 4   0   0   0   1       46  test        1        1                z Fri Oct 11 2024 14:24:25 GMT-0500 (Central Daylight Time) 730105.4       O        z           1201       55              1    59.bmp        -120        -120    60.bmp         120        -120    61.bmp        -120         120    62.bmp         120         120     9260.4   720845.0       7024              yes   SM         C       62.bmp            120            120               191209                  185182                 193225               187194         725126.0            719097.0           727141.0         721110.0     55
 2   0   1   0   0       47  test        1        1                m Fri Oct 11 2024 14:24:25 GMT-0500 (Central Daylight Time) 739302.3       O        m           1137       56              1    63.bmp        -120        -120    64.bmp         120        -120    65.bmp        -120         120    66.bmp         120         120     9193.8   730108.5       7024              yes   SM         C       63.bmp            120           -120               191209                  185182                 193225               187194         734389.0            728361.0           736405.0         730374.0     56
 4   0   0   0   1       47  test        1        0                m Fri Oct 11 2024 14:24:25 GMT-0500 (Central Daylight Time) 748900.6       O        z           1540       57              1    67.bmp        -120        -120    68.bmp         120        -120    69.bmp        -120         120    70.bmp         120         120     9595.3   739305.3       7024              yes   SM         C       68.bmp            120            120               191209                  185182                 193225               187194         743586.0            737557.0           745602.0         739571.0     57
 3   0   0   1   0       48  test        1        1                z Fri Oct 11 2024 14:24:25 GMT-0500 (Central Daylight Time) 758679.9       O        z           1727       58              1    71.bmp        -120        -120    72.bmp         120        -120    73.bmp        -120         120    74.bmp         120         120     9776.3   748903.6       7024              yes   SM         C       73.bmp           -120            120               191209                  185182                 193225               187194         753183.0            747156.0           755199.0         749168.0     58
 2   0   1   0   0       48  test        1        0                m Fri Oct 11 2024 14:24:25 GMT-0500 (Central Daylight Time) 768510.0       O        z           1777       59              1    75.bmp        -120        -120    76.bmp         120        -120    77.bmp        -120         120    78.bmp         120         120     9827.3   758682.7       7024              yes   SM         C       78.bmp            120           -120               191209                  185182                 193225               187194         762963.0            756935.0           764981.0         758949.0     59
 1   1   0   0   0       49  test        1        1                z Fri Oct 11 2024 14:24:25 GMT-0500 (Central Daylight Time) 777657.0       O        z           1092       60              1    79.bmp        -120        -120    80.bmp         120        -120    81.bmp        -120         120    82.bmp         120         120     9143.7   768513.3       7024              yes   SM         C       79.bmp           -120           -120               191209                  185182                 193225               187194         772795.0            766766.0           774810.0         768778.0     60
 2   0   1   0   0       50  test        1        1                z Fri Oct 11 2024 14:24:25 GMT-0500 (Central Daylight Time) 786571.0       O        z            857       61              1    83.bmp        -120        -120    84.bmp         120        -120    85.bmp        -120         120    86.bmp         120         120     8910.7   777660.3       7024              yes   SM         C       84.bmp            120           -120               191209                  185182                 193225               187194         781941.0            775913.0           783957.0         777926.0     61
 4   0   0   0   1       51  test        1        1                z Fri Oct 11 2024 14:24:25 GMT-0500 (Central Daylight Time) 796034.4       O        z           1415       62              1    91.bmp        -120        -120    92.bmp         120        -120    93.bmp        -120         120    94.bmp         120         120     9460.0   786574.4       7024              yes   SM         C       94.bmp            120            120               191209                  185182                 193225               187194         790855.0            784827.0           792871.0         786839.0     62
 1   1   0   0   0       51  test        1        0                m Fri Oct 11 2024 14:24:25 GMT-0500 (Central Daylight Time) 805914.8       O        z           1833       63              1    95.bmp        -120        -120    96.bmp         120        -120    97.bmp        -120         120    98.bmp         120         120     9877.6   796037.2       7024              yes   SM         C       95.bmp           -120            120               191209                  185182                 193225               187194         800318.0            794289.0           802334.0         796303.0     63
 2   0   1   0   0       52  test        1        1                z Fri Oct 11 2024 14:24:25 GMT-0500 (Central Daylight Time) 815411.8       O        z           1438       64              1    99.bmp        -120        -120   100.bmp         120        -120    62.bmp        -120         120    51.bmp         120         120     9494.4   805917.4       7024              yes   SM         C      100.bmp            120           -120               191209                  185182                 193225               187194         810198.0            804170.0           812216.0         806183.0     64
 4   0   0   0   1       53  test        1        1                m Fri Oct 11 2024 14:24:25 GMT-0500 (Central Daylight Time) 824692.3       O        m           1230       65              1    52.bmp        -120        -120    53.bmp         120        -120    54.bmp        -120         120    55.bmp         120         120     9277.4   815414.9       7024              yes   SM         C       54.bmp            120            120               191209                  185182                 193225               187194         819696.0            813667.0           821712.0         815680.0     65
 3   0   0   1   0       53  test        1        0                m Fri Oct 11 2024 14:24:25 GMT-0500 (Central Daylight Time) 834755.8       O     None           2016       66              1    56.bmp        -120        -120    57.bmp         120        -120    58.bmp        -120         120    59.bmp         120         120    10060.5   824695.3       7024              yes   SM         C       59.bmp           -120            120               191209                  185182                 193225               187194         828976.0            822948.0           830992.0         824961.0     66
 2   0   1   0   0       54  test        1        1                m Fri Oct 11 2024 14:24:25 GMT-0500 (Central Daylight Time) 843819.7       O        m           1006       67              1    87.bmp        -120        -120    88.bmp         120        -120    89.bmp        -120         120    90.bmp         120         120     9060.8   834758.9       7024              yes   SM         C       89.bmp            120           -120               191209                  185182                 193225               187194         839040.0            833011.0           841056.0         835024.0     67
 3   0   0   1   0       55  test        1        1                z Fri Oct 11 2024 14:24:25 GMT-0500 (Central Daylight Time) 853066.8       O        z           1191       68              1    60.bmp        -120        -120    61.bmp         120        -120    62.bmp        -120         120    63.bmp         120         120     9244.2   843822.6       7024              yes   SM         C       62.bmp           -120            120               191209                  185182                 193225               187194         848103.0            842075.0           850119.0         844088.0     68
 1   1   0   0   0       56  test        1        1                m Fri Oct 11 2024 14:24:25 GMT-0500 (Central Daylight Time) 862130.6       O        m           1008       69              1    64.bmp        -120        -120    65.bmp         120        -120    66.bmp        -120         120    67.bmp         120         120     9060.8   853069.8       7024              yes   SM         C       65.bmp           -120           -120               191209                  185182                 193225               187194         857352.0            851322.0           859366.0         853335.0     69
 2   0   1   0   0       57  test        1        1                m Fri Oct 11 2024 14:24:25 GMT-0500 (Central Daylight Time) 871244.3       O        m           1064       70              1    68.bmp        -120        -120    69.bmp         120        -120    70.bmp        -120         120    71.bmp         120         120     9110.8   862133.5       7024              yes   SM         C       70.bmp            120           -120               191209                  185182                 193225               187194         866414.0            860386.0           868430.0         862399.0     70
 4   0   0   0   1       58  test        1        1                z Fri Oct 11 2024 14:24:25 GMT-0500 (Central Daylight Time) 880708.1       O        z           1414       71              1    72.bmp        -120        -120    73.bmp         120        -120    74.bmp        -120         120    75.bmp         120         120     9460.9   871247.2       7024              yes   SM         C       75.bmp            120            120               191209                  185182                 193225               187194         875528.0            869499.0           877544.0         871513.0     71
 1   1   0   0   0       59  test        1        1                z Fri Oct 11 2024 14:24:25 GMT-0500 (Central Daylight Time) 890105.2       O        z           1343       72              1    76.bmp        -120        -120    77.bmp         120        -120    78.bmp        -120         120    79.bmp         120         120     9394.5   880710.7       7024              yes   SM         C       76.bmp           -120           -120               191209                  185182                 193225               187194         884992.0            878963.0           887008.0         880976.0     72
 2   0   1   0   0       60  test        1        1                z Fri Oct 11 2024 14:24:25 GMT-0500 (Central Daylight Time) 899069.1       O        z            913       73              1    80.bmp        -120        -120    81.bmp         120        -120    82.bmp        -120         120    83.bmp         120         120     8961.0   890108.1       7024              yes   SM         C       81.bmp            120           -120               191209                  185182                 193225               187194         894389.0            888360.0           896405.0         890373.0     73
 4   0   0   0   1       61  test        1        1                m Fri Oct 11 2024 14:24:25 GMT-0500 (Central Daylight Time) 908033.0       O        m            901       74              1    84.bmp        -120        -120    85.bmp         120        -120    86.bmp        -120         120    87.bmp         120         120     8961.2   899071.8       7024              yes   SM         C       86.bmp            120            120               191209                  185182                 193225               187194         903353.0            897324.0           905369.0         899337.0     74
 2   0   1   0   0       62  test        1        1                m Fri Oct 11 2024 14:24:25 GMT-0500 (Central Daylight Time) 917113.6       O        m           1017       75              1    88.bmp        -120        -120    89.bmp         120        -120    90.bmp        -120         120    91.bmp         120         120     9077.3   908036.3       7024              yes   SM         C       91.bmp            120           -120               191209                  185182                 193225               187194         912317.0            906288.0           914333.0         908301.0     75
 1   1   0   0   0       63  test        1        1                z Fri Oct 11 2024 14:24:25 GMT-0500 (Central Daylight Time) 925894.0       O        z            721       76              1    92.bmp        -120        -120    93.bmp         120        -120    94.bmp        -120         120    95.bmp         120         120     8776.7   917117.3       7024              yes   SM         C       92.bmp           -120           -120               191209                  185182                 193225               187194         921397.0            915370.0           923413.0         917382.0     76
 3   0   0   1   0       64  test        1        1                z Fri Oct 11 2024 14:24:25 GMT-0500 (Central Daylight Time) 935407.4       O        z           1460       77              1   100.bmp        -120        -120    61.bmp         120        -120    51.bmp        -120         120    52.bmp         120         120     9510.6   925896.8       7024              yes   SM         C       51.bmp           -120            120               191209                  185182                 193225               187194         930178.0            924149.0           932194.0         926163.0     77
 1   1   0   0   0       65  test        1        1                m Fri Oct 11 2024 14:24:25 GMT-0500 (Central Daylight Time) 945054.8       O        m           1587       78              1    96.bmp        -120        -120    97.bmp         120        -120    98.bmp        -120         120    99.bmp         120         120     9644.1   935410.7       7024              yes   SM         C       97.bmp           -120           -120               191209                  185182                 193225               187194         939691.0            933663.0           941707.0         935676.0     78
 4   0   0   0   1       66  test        1        1                m Fri Oct 11 2024 14:24:25 GMT-0500 (Central Daylight Time) 954068.3       O        m            955       79              1    57.bmp        -120        -120    58.bmp         120        -120    59.bmp        -120         120    60.bmp         120         120     9005.2   945063.1       7024              yes   SM         C       57.bmp            120            120               191209                  185182                 193225               187194         949338.0            943315.0           951355.0         945323.0     79
 3   0   0   1   0       67  test        1        1                m Fri Oct 11 2024 14:24:25 GMT-0500 (Central Daylight Time) 963032.4       O        m            910       80              1    53.bmp        -120        -120    54.bmp         120        -120    55.bmp        -120         120    56.bmp         120         120     8960.9   954071.5       7024              yes   SM         C       56.bmp           -120            120               191209                  185182                 193225               187194         958353.0            952324.0           960368.0         954337.0     80