Q,Q1,Q2,Q3,Q4,acc_sum,block,block_c,correct,correct_response,datetime,endtime,project,response,response_time,row_sel,session_number,squiggle1,squiggle1x,squiggle1y,squiggle2,squiggle2x,squiggle2y,squiggle3,squiggle3x,squiggle3y,squiggle4,squiggle4x,squiggle4y,start_end,starttime,subject_id,target_congruent,task,task_vers,testsquiggle,testsquigglex,testsquiggley,time_practice_delay,time_practice_fixation,time_practice_stimuli,time_practice_study,time_test_delay,time_test_fixation,time_test_stimuli,time_test_study,trial
1,1,0,0,0,1,prac,1,1,z,Fri Jan 17 2025 14:06:57 GMT-0500 (Eastern Standard Time),182629.8000011444,I,z,1343,1,3,16.bmp,-120,-120,17.bmp,120,-120,18.bmp,-120,120,19.bmp,120,120,10159.20000076294,172470.60000038147,9002,yes,SM,B,16.bmp,-120,-120,173004,166979,175024,168990,,,,,1
3,0,0,1,0,2,prac,1,1,m,Fri Jan 17 2025 14:06:57 GMT-0500 (Eastern Standard Time),192613.60000038147,I,m,1161,2,3,20.bmp,-120,-120,21.bmp,120,-120,22.bmp,-120,120,23.bmp,120,120,9978.29999923706,182635.3000011444,9002,no,SM,B,23.bmp,-120,120,183171,177144,185191,179157,,,,,2
4,0,0,0,1,3,prac,1,1,m,Fri Jan 17 2025 14:06:57 GMT-0500 (Eastern Standard Time),202879.90000152588,I,m,1434,3,3,24.bmp,-120,-120,25.bmp,120,-120,26.bmp,-120,120,27.bmp,120,120,10257.5,192622.40000152588,9002,no,SM,B,24.bmp,120,120,193154,187131,195173,189140,,,,,3
2,0,1,0,0,4,prac,1,1,z,Fri Jan 17 2025 14:06:57 GMT-0500 (Eastern Standard Time),213596.20000076294,I,z,1886,4,3,28.bmp,-120,-120,29.bmp,120,-120,30.bmp,-120,120,31.bmp,120,120,10708.39999961853,202887.8000011444,9002,yes,SM,B,29.bmp,120,-120,203421,197396,205441,199407,,,,,4
3,0,0,1,0,4,prac,1,0,z,Fri Jan 17 2025 14:06:57 GMT-0500 (Eastern Standard Time),223696.70000076294,I,m,1265,5,3,32.bmp,-120,-120,33.bmp,120,-120,34.bmp,-120,120,35.bmp,120,120,10096.39999961853,213600.3000011444,9002,yes,SM,B,34.bmp,-120,120,214138,208109,216158,210124,,,,,5
1,1,0,0,0,4,prac,1,0,m,Fri Jan 17 2025 14:06:57 GMT-0500 (Eastern Standard Time),234229.90000152588,I,z,1710,6,3,36.bmp,-120,-120,37.bmp,120,-120,38.bmp,-120,120,39.bmp,120,120,10523.0,223706.90000152588,9002,no,SM,B,39.bmp,-120,-120,224238,218215,226258,220223,,,,,6
2,0,1,0,0,4,prac,1,0,m,Fri Jan 17 2025 14:06:57 GMT-0500 (Eastern Standard Time),244879.40000152588,I,z,1816,7,3,40.bmp,-120,-120,41.bmp,120,-120,42.bmp,-120,120,43.bmp,120,120,10640.10000038147,234239.3000011444,9002,no,SM,B,40.bmp,120,-120,234771,228748,236791,230756,,,,,7
4,0,0,0,1,4,prac,1,0,z,Fri Jan 17 2025 14:06:57 GMT-0500 (Eastern Standard Time),255713.10000038147,I,None,2014,8,3,44.bmp,-120,-120,45.bmp,120,-120,46.bmp,-120,120,47.bmp,120,120,10829.19999885559,244883.90000152588,9002,yes,SM,B,47.bmp,120,120,245421,239392,247440,241407,,,,,8
1,1,0,0,0,1,prac,2,1,z,Fri Jan 17 2025 14:06:57 GMT-0500 (Eastern Standard Time),276063.4000015259,I,z,833,1,3,16.bmp,-120,-120,17.bmp,120,-120,18.bmp,-120,120,19.bmp,120,120,9657.60000038147,266405.8000011444,9002,yes,SM,B,16.bmp,-120,-120,266938,260914,268958,262923,,,,,1
3,0,0,1,0,2,prac,2,1,m,Fri Jan 17 2025 14:06:57 GMT-0500 (Eastern Standard Time),285463.0,I,m,576,2,3,20.bmp,-120,-120,21.bmp,120,-120,22.bmp,-120,120,23.bmp,120,120,9390.69999885559,276072.3000011444,9002,no,SM,B,23.bmp,-120,120,276605,270580,278624,272590,,,,,2
4,0,0,0,1,3,prac,2,1,m,Fri Jan 17 2025 14:06:57 GMT-0500 (Eastern Standard Time),296230.3000011444,I,m,1944,3,3,24.bmp,-120,-120,25.bmp,120,-120,26.bmp,-120,120,27.bmp,120,120,10761.70000076294,285468.60000038147,9002,no,SM,B,24.bmp,120,120,286005,279977,288024,281990,,,,,3
2,0,1,0,0,3,prac,2,0,z,Fri Jan 17 2025 14:06:57 GMT-0500 (Eastern Standard Time),307063.20000076294,I,None,2014,4,3,28.bmp,-120,-120,29.bmp,120,-120,30.bmp,-120,120,31.bmp,120,120,10825.70000076294,296237.5,9002,yes,SM,B,29.bmp,120,-120,296771,290746,298791,292757,,,,,4
3,0,0,1,0,4,prac,2,1,z,Fri Jan 17 2025 14:06:57 GMT-0500 (Eastern Standard Time),317380.0,I,z,1496,5,3,32.bmp,-120,-120,33.bmp,120,-120,34.bmp,-120,120,35.bmp,120,120,10308.19999885559,307071.8000011444,9002,yes,SM,B,34.bmp,-120,120,307605,301580,309624,303590,,,,,5
1,1,0,0,0,5,prac,2,1,m,Fri Jan 17 2025 14:06:57 GMT-0500 (Eastern Standard Time),327496.60000038147,I,m,1291,6,3,36.bmp,-120,-120,37.bmp,120,-120,38.bmp,-120,120,39.bmp,120,120,10109.79999923706,317386.8000011444,9002,no,SM,B,39.bmp,-120,-120,317921,311895,319941,313907,,,,,6
2,0,1,0,0,5,prac,2,0,m,Fri Jan 17 2025 14:06:57 GMT-0500 (Eastern Standard Time),338246.60000038147,I,z,1928,7,3,40.bmp,-120,-120,41.bmp,120,-120,42.bmp,-120,120,43.bmp,120,120,10742.0,327504.60000038147,9002,no,SM,B,40.bmp,120,-120,328038,322013,330056,324024,,,,,7
4,0,0,0,1,6,prac,2,1,z,Fri Jan 17 2025 14:06:57 GMT-0500 (Eastern Standard Time),348846.8000011444,I,z,1769,8,3,44.bmp,-120,-120,45.bmp,120,-120,46.bmp,-120,120,47.bmp,120,120,10590.70000076294,338256.10000038147,9002,yes,SM,B,47.bmp,120,120,338788,332764,340807,334772,,,,,8
4,0,0,0,1,1,test,1,1,m,Fri Jan 17 2025 14:06:57 GMT-0500 (Eastern Standard Time),385663.20000076294,I,m,1468,1,3,48.bmp,-120,-120,49.bmp,120,-120,50.bmp,-120,120,43.bmp,120,120,9517.79999923706,376145.4000015259,9002,yes,SM,B,50.bmp,120,120,338788,332764,340807,334772,376672.0,370654.0,378691.0,372657.0,1
2,0,1,0,0,2,test,1,1,m,Fri Jan 17 2025 14:06:57 GMT-0500 (Eastern Standard Time),395479.9000015259,I,m,1759,2,3,1.bmp,-120,-120,2.bmp,120,-120,3.bmp,-120,120,4.bmp,120,120,9811.20000076294,385668.70000076294,9002,yes,SM,B,3.bmp,120,-120,338788,332764,340807,334772,386205.0,380177.0,388224.0,382191.0,2
1,1,0,0,0,2,test,1,0,z,Fri Jan 17 2025 14:06:57 GMT-0500 (Eastern Standard Time),405430.10000038147,I,m,1894,3,3,5.bmp,-120,-120,6.bmp,120,-120,7.bmp,-120,120,8.bmp,120,120,9946.10000038147,395484.0,9002,yes,SM,B,5.bmp,-120,-120,338788,332764,340807,334772,396022.0,389992.0,398041.0,392007.0,3
3,0,0,1,0,2,test,1,0,m,Fri Jan 17 2025 14:06:57 GMT-0500 (Eastern Standard Time),415496.8000011444,I,None,2014,4,3,9.bmp,-120,-120,10.bmp,120,-120,11.bmp,-120,120,12.bmp,120,120,10057.60000038147,405439.20000076294,9002,yes,SM,B,9.bmp,-120,120,338788,332764,340807,334772,405971.0,399947.0,407991.0,401957.0,4
2,0,1,0,0,3,test,1,1,z,Fri Jan 17 2025 14:06:57 GMT-0500 (Eastern Standard Time),424596.60000038147,I,z,1046,5,3,13.bmp,-120,-120,14.bmp,120,-120,15.bmp,-120,120,16.bmp,120,120,9089.29999923706,415507.3000011444,9002,yes,SM,B,14.bmp,120,-120,338788,332764,340807,334772,416038.0,410016.0,418057.0,412024.0,5
3,0,0,1,0,3,test,1,0,z,Fri Jan 17 2025 14:06:57 GMT-0500 (Eastern Standard Time),434663.5,I,None,2014,6,3,17.bmp,-120,-120,18.bmp,120,-120,19.bmp,-120,120,20.bmp,120,120,10058.79999923706,424604.70000076294,9002,yes,SM,B,19.bmp,-120,120,338788,332764,340807,334772,425138.0,419113.0,427157.0,421124.0,6
4,0,0,0,1,4,test,1,1,z,Fri Jan 17 2025 14:06:57 GMT-0500 (Eastern Standard Time),444296.9000015259,I,z,1576,7,3,21.bmp,-120,-120,22.bmp,120,-120,23.bmp,-120,120,24.bmp,120,120,9623.10000038147,434673.8000011444,9002,yes,SM,B,24.bmp,120,120,338788,332764,340807,334772,435205.0,429182.0,437224.0,431191.0,7
2,0,1,0,0,5,test,1,1,m,Fri Jan 17 2025 14:06:57 GMT-0500 (Eastern Standard Time),454096.8000011444,I,m,1736,8,3,25.bmp,-120,-120,26.bmp,120,-120,27.bmp,-120,120,28.bmp,120,120,9792.70000076294,444304.10000038147,9002,yes,SM,B,25.bmp,120,-120,338788,332764,340807,334772,444838.0,438812.0,446856.0,440824.0,8
3,0,0,1,0,6,test,1,1,m,Fri Jan 17 2025 14:06:57 GMT-0500 (Eastern Standard Time),464146.70000076294,I,m,1983,9,3,29.bmp,-120,-120,30.bmp,120,-120,31.bmp,-120,120,32.bmp,120,120,10042.70000076294,454104.0,9002,yes,SM,B,30.bmp,-120,120,338788,332764,340807,334772,454638.0,448612.0,456656.0,450624.0,9
4,0,0,0,1,6,test,1,0,z,Fri Jan 17 2025 14:06:57 GMT-0500 (Eastern Standard Time),473980.10000038147,I,m,1772,10,3,37.bmp,-120,-120,38.bmp,120,-120,39.bmp,-120,120,40.bmp,120,120,9825.39999961853,464154.70000076294,9002,yes,SM,B,40.bmp,120,120,338788,332764,340807,334772,464688.0,458663.0,466707.0,460674.0,10
3,0,0,1,0,7,test,1,1,z,Fri Jan 17 2025 14:06:57 GMT-0500 (Eastern Standard Time),483213.5,I,z,1171,11,3,33.bmp,-120,-120,34.bmp,120,-120,35.bmp,-120,120,36.bmp,120,120,9225.099998474121,473988.4000015259,9002,yes,SM,B,35.bmp,-120,120,338788,332764,340807,334772,474522.0,468497.0,476541.0,470507.0,11
2,0,1,0,0,8,test,1,1,m,Fri Jan 17 2025 14:06:57 GMT-0500 (Eastern Standard Time),493030.20000076294,I,m,1762,12,3,41.bmp,-120,-120,42.bmp,120,-120,43.bmp,-120,120,44.bmp,120,120,9807.0,483223.20000076294,9002,yes,SM,B,41.bmp,120,-120,338788,332764,340807,334772,483755.0,477731.0,485774.0,479740.0,12
3,0,0,1,0,9,test,1,1,m,Fri Jan 17 2025 14:06:57 GMT-0500 (Eastern Standard Time),503013.20000076294,I,m,1928,13,3,45.bmp,-120,-120,46.bmp,120,-120,47.bmp,-120,120,48.bmp,120,120,9974.29999923706,493038.9000015259,9002,yes,SM,B,46.bmp,-120,120,338788,332764,340807,334772,493572.0,487547.0,495591.0,489557.0,13
1,1,0,0,0,10,test,1,1,z,Fri Jan 17 2025 14:06:57 GMT-0500 (Eastern Standard Time),512546.8000011444,I,z,1465,14,3,49.bmp,-120,-120,50.bmp,120,-120,4.bmp,-120,120,1.bmp,120,120,9526.60000038147,503020.20000076294,9002,yes,SM,B,49.bmp,-120,-120,338788,332764,340807,334772,503555.0,497529.0,505574.0,499539.0,14
4,0,0,0,1,11,test,1,1,m,Fri Jan 17 2025 14:06:57 GMT-0500 (Eastern Standard Time),522047.0,I,m,1436,15,3,10.bmp,-120,-120,11.bmp,120,-120,12.bmp,-120,120,13.bmp,120,120,9492.39999961853,512554.60000038147,9002,yes,SM,B,11.bmp,120,120,338788,332764,340807,334772,513088.0,507063.0,515108.0,509074.0,15
1,1,0,0,0,12,test,1,1,m,Fri Jan 17 2025 14:06:57 GMT-0500 (Eastern Standard Time),531680.3000011444,I,m,1568,16,3,2.bmp,-120,-120,3.bmp,120,-120,4.bmp,-120,120,5.bmp,120,120,9626.5,522053.8000011444,9002,yes,SM,B,5.bmp,-120,-120,338788,332764,340807,334772,522588.0,516562.0,524608.0,518574.0,16
3,0,0,1,0,12,test,1,0,m,Fri Jan 17 2025 14:06:57 GMT-0500 (Eastern Standard Time),541280.2000007629,I,z,1535,17,3,22.bmp,-120,-120,23.bmp,120,-120,24.bmp,-120,120,25.bmp,120,120,9593.60000038147,531686.6000003815,9002,yes,SM,B,22.bmp,-120,120,338788,332764,340807,334772,532222.0,526195.0,534241.0,528207.0,17
1,1,0,0,0,13,test,1,1,z,Fri Jan 17 2025 14:06:57 GMT-0500 (Eastern Standard Time),550780.2000007629,I,z,1439,18,3,6.bmp,-120,-120,7.bmp,120,-120,8.bmp,-120,120,9.bmp,120,120,9493.0,541287.2000007629,9002,yes,SM,B,6.bmp,-120,-120,338788,332764,340807,334772,541822.0,535795.0,543841.0,537807.0,18
2,0,1,0,0,14,test,1,1,z,Fri Jan 17 2025 14:06:57 GMT-0500 (Eastern Standard Time),560480.2000007629,I,z,1636,19,3,26.bmp,-120,-120,27.bmp,120,-120,28.bmp,-120,120,29.bmp,120,120,9685.79999923706,550794.4000015259,9002,yes,SM,B,27.bmp,120,-120,338788,332764,340807,334772,551322.0,545303.0,553340.0,547307.0,19
3,0,0,1,0,15,test,1,1,z,Fri Jan 17 2025 14:06:57 GMT-0500 (Eastern Standard Time),570297.0,I,z,1759,20,3,30.bmp,-120,-120,31.bmp,120,-120,32.bmp,-120,120,33.bmp,120,120,9806.69999885559,560490.3000011444,9002,yes,SM,B,32.bmp,-120,120,338788,332764,340807,334772,561021.0,554999.0,563041.0,557007.0,20
1,1,0,0,0,15,test,1,0,m,Fri Jan 17 2025 14:06:57 GMT-0500 (Eastern Standard Time),580130.2000007629,I,z,1766,21,3,14.bmp,-120,-120,15.bmp,120,-120,16.bmp,-120,120,17.bmp,120,120,9824.20000076294,570306.0,9002,yes,SM,B,16.bmp,-120,-120,338788,332764,340807,334772,570838.0,564815.0,572858.0,566824.0,21
4,0,0,0,1,16,test,1,1,z,Fri Jan 17 2025 14:06:57 GMT-0500 (Eastern Standard Time),590146.9000015259,I,z,1966,22,3,18.bmp,-120,-120,19.bmp,120,-120,20.bmp,-120,120,21.bmp,120,120,10009.20000076294,580137.7000007629,9002,yes,SM,B,21.bmp,120,120,338788,332764,340807,334772,580671.0,574646.0,582674.0,576657.0,22
1,1,0,0,0,17,test,1,1,m,Fri Jan 17 2025 14:06:57 GMT-0500 (Eastern Standard Time),600046.9000015259,I,m,1836,23,3,34.bmp,-120,-120,35.bmp,120,-120,36.bmp,-120,120,37.bmp,120,120,9893.70000076294,590153.2000007629,9002,yes,SM,B,37.bmp,-120,-120,338788,332764,340807,334772,590688.0,584661.0,592708.0,586674.0,23
2,0,1,0,0,18,test,1,1,z,Fri Jan 17 2025 14:06:57 GMT-0500 (Eastern Standard Time),609463.6000003815,I,z,1363,24,3,42.bmp,-120,-120,43.bmp,120,-120,44.bmp,-120,120,45.bmp,120,120,9409.69999885559,600053.9000015259,9002,yes,SM,B,43.bmp,120,-120,338788,332764,340807,334772,600589.0,594562.0,602605.0,596574.0,24
4,0,0,0,1,19,test,1,1,m,Fri Jan 17 2025 14:06:57 GMT-0500 (Eastern Standard Time),619381.0,I,m,1864,25,3,46.bmp,-120,-120,47.bmp,120,-120,48.bmp,-120,120,49.bmp,120,120,9907.69999885559,609473.3000011444,9002,yes,SM,B,48.bmp,120,120,338788,332764,340807,334772,610005.0,603982.0,612023.0,605989.0,25
1,1,0,0,0,20,test,1,1,z,Fri Jan 17 2025 14:06:57 GMT-0500 (Eastern Standard Time),628430.4000015259,I,z,987,26,3,38.bmp,-120,-120,39.bmp,120,-120,40.bmp,-120,120,41.bmp,120,120,9043.900001525879,619386.5,9002,yes,SM,B,38.bmp,-120,-120,338788,332764,340807,334772,619922.0,613895.0,621941.0,615907.0,26
4,0,0,0,1,21,test,1,1,z,Fri Jan 17 2025 14:06:57 GMT-0500 (Eastern Standard Time),638180.2000007629,I,z,1681,27,3,50.bmp,-120,-120,11.bmp,120,-120,1.bmp,-120,120,2.bmp,120,120,9742.39999961853,628437.8000011444,9002,yes,SM,B,2.bmp,120,120,338788,332764,340807,334772,628972.0,622946.0,630991.0,624957.0,27
3,0,0,1,0,22,test,1,1,m,Fri Jan 17 2025 14:06:57 GMT-0500 (Eastern Standard Time),648046.9000015259,I,m,1803,28,3,3.bmp,-120,-120,4.bmp,120,-120,5.bmp,-120,120,6.bmp,120,120,9858.400001525879,638188.5,9002,yes,SM,B,3.bmp,-120,120,338788,332764,340807,334772,638722.0,632697.0,640741.0,634707.0,28
2,0,1,0,0,22,test,1,0,z,Fri Jan 17 2025 14:06:57 GMT-0500 (Eastern Standard Time),658113.6000003815,I,None,2015,29,3,7.bmp,-120,-120,8.bmp,120,-120,9.bmp,-120,120,10.bmp,120,120,10057.60000038147,648056.0,9002,yes,SM,B,8.bmp,120,-120,338788,332764,340807,334772,648589.0,642564.0,650607.0,644574.0,29
3,0,0,1,0,23,test,1,1,z,Fri Jan 17 2025 14:06:57 GMT-0500 (Eastern Standard Time),667763.3000011444,I,z,1596,30,3,11.bmp,-120,-120,12.bmp,120,-120,13.bmp,-120,120,14.bmp,120,120,9641.70000076294,658121.6000003815,9002,yes,SM,B,13.bmp,-120,120,338788,332764,340807,334772,658655.0,652630.0,660675.0,654640.0,30
1,1,0,0,0,24,test,1,1,z,Fri Jan 17 2025 14:06:57 GMT-0500 (Eastern Standard Time),677113.4000015259,I,z,1290,31,3,15.bmp,-120,-120,16.bmp,120,-120,17.bmp,-120,120,18.bmp,120,120,9346.20000076294,667767.2000007629,9002,yes,SM,B,15.bmp,-120,-120,338788,332764,340807,334772,668305.0,662275.0,670325.0,664290.0,31
2,0,1,0,0,24,test,1,0,m,Fri Jan 17 2025 14:06:57 GMT-0500 (Eastern Standard Time),687180.5,I,None,2014,32,3,19.bmp,-120,-120,20.bmp,120,-120,21.bmp,-120,120,22.bmp,120,120,10063.39999961853,677117.1000003815,9002,yes,SM,B,19.bmp,120,-120,338788,332764,340807,334772,677655.0,671625.0,679674.0,673641.0,32
4,0,0,0,1,25,test,1,1,z,Fri Jan 17 2025 14:06:57 GMT-0500 (Eastern Standard Time),696697.0,I,z,1460,33,3,31.bmp,-120,-120,32.bmp,120,-120,33.bmp,-120,120,34.bmp,120,120,9508.599998474121,687188.4000015259,9002,yes,SM,B,34.bmp,120,120,338788,332764,340807,334772,687722.0,681697.0,689740.0,683707.0,33
2,0,1,0,0,26,test,1,1,z,Fri Jan 17 2025 14:06:57 GMT-0500 (Eastern Standard Time),705880.5,I,z,1126,34,3,23.bmp,-120,-120,24.bmp,120,-120,25.bmp,-120,120,26.bmp,120,120,9174.89999961853,696705.6000003815,9002,yes,SM,B,24.bmp,120,-120,338788,332764,340807,334772,697239.0,691214.0,699258.0,693224.0,34
4,0,0,0,1,26,test,1,0,m,Fri Jan 17 2025 14:06:57 GMT-0500 (Eastern Standard Time),715947.1000003815,I,None,2014,35,3,27.bmp,-120,-120,28.bmp,120,-120,29.bmp,-120,120,30.bmp,120,120,10058.39999961853,705888.7000007629,9002,yes,SM,B,29.bmp,120,120,338788,332764,340807,334772,706422.0,700397.0,708441.0,702407.0,35
3,0,0,1,0,27,test,1,1,m,Fri Jan 17 2025 14:06:57 GMT-0500 (Eastern Standard Time),725380.2000007629,I,m,1364,36,3,35.bmp,-120,-120,36.bmp,120,-120,37.bmp,-120,120,38.bmp,120,120,9424.60000038147,715955.6000003815,9002,yes,SM,B,35.bmp,-120,120,338788,332764,340807,334772,716488.0,710464.0,718508.0,712473.0,36
1,1,0,0,0,28,test,1,1,m,Fri Jan 17 2025 14:06:57 GMT-0500 (Eastern Standard Time),735163.4000015259,I,m,1724,37,3,39.bmp,-120,-120,40.bmp,120,-120,41.bmp,-120,120,42.bmp,120,120,9774.70000076294,725388.7000007629,9002,yes,SM,B,40.bmp,-120,-120,338788,332764,340807,334772,725922.0,719897.0,727939.0,721907.0,37
2,0,1,0,0,28,test,1,0,m,Fri Jan 17 2025 14:06:57 GMT-0500 (Eastern Standard Time),744863.7000007629,I,z,1637,38,3,43.bmp,-120,-120,44.bmp,120,-120,45.bmp,-120,120,46.bmp,120,120,9695.5,735168.2000007629,9002,yes,SM,B,45.bmp,120,-120,338788,332764,340807,334772,735705.0,729676.0,737723.0,731691.0,38
4,0,0,0,1,29,test,1,1,z,Fri Jan 17 2025 14:06:57 GMT-0500 (Eastern Standard Time),754397.2000007629,I,z,1471,39,3,47.bmp,-120,-120,48.bmp,120,-120,49.bmp,-120,120,50.bmp,120,120,9519.0,744878.2000007629,9002,yes,SM,B,50.bmp,120,120,338788,332764,340807,334772,745405.0,739387.0,747424.0,741390.0,39
3,0,0,1,0,30,test,1,1,m,Fri Jan 17 2025 14:06:57 GMT-0500 (Eastern Standard Time),763547.1000003815,I,m,1090,40,3,4.bmp,-120,-120,5.bmp,120,-120,6.bmp,-120,120,7.bmp,120,120,9142.19999885559,754404.9000015259,9002,yes,SM,B,5.bmp,-120,120,338788,332764,340807,334772,754939.0,748913.0,756958.0,750924.0,40
1,1,0,0,0,31,test,1,1,z,Fri Jan 17 2025 14:06:57 GMT-0500 (Eastern Standard Time),773447.1000003815,I,z,1844,41,3,8.bmp,-120,-120,9.bmp,120,-120,10.bmp,-120,120,11.bmp,120,120,9891.19999885559,763555.9000015259,9002,yes,SM,B,8.bmp,-120,-120,338788,332764,340807,334772,764088.0,758064.0,766108.0,760074.0,41
4,0,0,0,1,32,test,1,1,z,Fri Jan 17 2025 14:06:57 GMT-0500 (Eastern Standard Time),783197.3000011444,I,z,1689,42,3,12.bmp,-120,-120,13.bmp,120,-120,14.bmp,-120,120,15.bmp,120,120,9741.39999961853,773455.9000015259,9002,yes,SM,B,15.bmp,120,120,338788,332764,340807,334772,773989.0,767964.0,776007.0,769974.0,42
1,1,0,0,0,33,test,1,1,z,Fri Jan 17 2025 14:06:57 GMT-0500 (Eastern Standard Time),792863.7000007629,I,z,1601,43,3,16.bmp,-120,-120,17.bmp,120,-120,18.bmp,-120,120,19.bmp,120,120,9656.29999923706,783207.4000015259,9002,yes,SM,B,16.bmp,-120,-120,338788,332764,340807,334772,783738.0,777716.0,785757.0,779724.0,43
4,0,0,0,1,34,test,1,1,m,Fri Jan 17 2025 14:06:57 GMT-0500 (Eastern Standard Time),802097.2000007629,I,m,1167,44,3,4.bmp,-120,-120,1.bmp,120,-120,2.bmp,-120,120,3.bmp,120,120,9220.60000038147,792876.6000003815,9002,yes,SM,B,4.bmp,120,120,338788,332764,340807,334772,793405.0,787385.0,795424.0,789390.0,44
1,1,0,0,0,35,test,1,1,m,Fri Jan 17 2025 14:06:57 GMT-0500 (Eastern Standard Time),811946.8000011444,I,m,1790,45,3,28.bmp,-120,-120,29.bmp,120,-120,30.bmp,-120,120,31.bmp,120,120,9843.39999961853,802103.4000015259,9002,yes,SM,B,31.bmp,-120,-120,338788,332764,340807,334772,802639.0,796612.0,804658.0,798624.0,45
1,1,0,0,0,36,test,1,1,m,Fri Jan 17 2025 14:06:57 GMT-0500 (Eastern Standard Time),821747.1000003815,I,m,1732,46,3,20.bmp,-120,-120,21.bmp,120,-120,22.bmp,-120,120,23.bmp,120,120,9796.69999885559,811950.4000015259,9002,yes,SM,B,21.bmp,-120,-120,338788,332764,340807,334772,812489.0,806459.0,814508.0,808474.0,46
3,0,0,1,0,36,test,1,0,z,Fri Jan 17 2025 14:06:57 GMT-0500 (Eastern Standard Time),831813.9000015259,I,None,2014,47,3,24.bmp,-120,-120,25.bmp,120,-120,26.bmp,-120,120,27.bmp,120,120,10060.400001525879,821753.5,9002,yes,SM,B,26.bmp,-120,120,338788,332764,340807,334772,822289.0,816262.0,824308.0,818274.0,47
3,0,0,1,0,37,test,1,1,z,Fri Jan 17 2025 14:06:57 GMT-0500 (Eastern Standard Time),840697.3000011444,I,z,827,48,3,40.bmp,-120,-120,41.bmp,120,-120,42.bmp,-120,120,43.bmp,120,120,8874.70000076294,831822.6000003815,9002,yes,SM,B,42.bmp,-120,120,338788,332764,340807,334772,832355.0,826331.0,834373.0,828339.0,48
2,0,1,0,0,37,test,1,0,z,Fri Jan 17 2025 14:06:57 GMT-0500 (Eastern Standard Time),850514.0,I,m,1750,49,3,36.bmp,-120,-120,37.bmp,120,-120,38.bmp,-120,120,39.bmp,120,120,9809.79999923706,840704.2000007629,9002,yes,SM,B,37.bmp,120,-120,338788,332764,340807,334772,841239.0,835212.0,843258.0,837224.0,49
3,0,0,1,0,38,test,1,1,m,Fri Jan 17 2025 14:06:57 GMT-0500 (Eastern Standard Time),859680.6000003815,I,m,1101,50,3,32.bmp,-120,-120,33.bmp,120,-120,34.bmp,-120,120,35.bmp,120,120,9157.5,850523.1000003815,9002,yes,SM,B,32.bmp,-120,120,338788,332764,340807,334772,851056.0,845031.0,853075.0,847041.0,50
2,0,1,0,0,39,test,1,1,z,Fri Jan 17 2025 14:06:57 GMT-0500 (Eastern Standard Time),869330.2000007629,I,z,1582,51,3,44.bmp,-120,-120,45.bmp,120,-120,46.bmp,-120,120,47.bmp,120,120,9641.20000076294,859689.0,9002,yes,SM,B,45.bmp,120,-120,338788,332764,340807,334772,860222.0,854198.0,862241.0,856207.0,51
4,0,0,0,1,40,test,1,1,m,Fri Jan 17 2025 14:06:57 GMT-0500 (Eastern Standard Time),878697.2000007629,I,m,1308,52,3,48.bmp,-120,-120,49.bmp,120,-120,50.bmp,-120,120,31.bmp,120,120,9363.5,869333.7000007629,9002,yes,SM,B,48.bmp,120,120,338788,332764,340807,334772,869872.0,863842.0,871891.0,865857.0,52
3,0,0,1,0,40,test,1,0,z,Fri Jan 17 2025 14:06:57 GMT-0500 (Eastern Standard Time),888699.5,I,m,1949,53,3,1.bmp,-120,-120,2.bmp,120,-120,3.bmp,-120,120,4.bmp,120,120,9995.5,878704.0,9002,yes,SM,B,3.bmp,-120,120,338788,332764,340807,334772,879239.0,873212.0,881258.0,875223.0,53
1,1,0,0,0,41,test,1,1,m,Fri Jan 17 2025 14:06:57 GMT-0500 (Eastern Standard Time),898530.6000003815,I,m,1767,54,3,5.bmp,-120,-120,6.bmp,120,-120,7.bmp,-120,120,8.bmp,120,120,9826.79999923706,888703.8000011444,9002,yes,SM,B,7.bmp,-120,-120,338788,332764,340807,334772,889239.0,883212.0,891257.0,885224.0,54
4,0,0,0,1,41,test,1,0,z,Fri Jan 17 2025 14:06:57 GMT-0500 (Eastern Standard Time),908597.0,I,None,2015,55,3,9.bmp,-120,-120,10.bmp,120,-120,11.bmp,-120,120,12.bmp,120,120,10059.0,898538.0,9002,yes,SM,B,12.bmp,120,120,338788,332764,340807,334772,899072.0,893046.0,901090.0,895057.0,55
2,0,1,0,0,42,test,1,1,m,Fri Jan 17 2025 14:06:57 GMT-0500 (Eastern Standard Time),918446.9000015259,I,m,1785,56,3,13.bmp,-120,-120,14.bmp,120,-120,15.bmp,-120,120,16.bmp,120,120,9846.30000114441,908600.6000003815,9002,yes,SM,B,13.bmp,120,-120,338788,332764,340807,334772,909139.0,903109.0,911158.0,905124.0,56
4,0,0,0,1,43,test,1,1,m,Fri Jan 17 2025 14:06:57 GMT-0500 (Eastern Standard Time),928330.7000007629,I,m,1824,57,3,17.bmp,-120,-120,18.bmp,120,-120,19.bmp,-120,120,20.bmp,120,120,9879.0,918451.7000007629,9002,yes,SM,B,18.bmp,120,120,338788,332764,340807,334772,918989.0,912960.0,921008.0,914975.0,57
3,0,0,1,0,43,test,1,0,z,Fri Jan 17 2025 14:06:57 GMT-0500 (Eastern Standard Time),937796.8000011444,I,m,1412,58,3,21.bmp,-120,-120,22.bmp,120,-120,23.bmp,-120,120,24.bmp,120,120,9459.30000114441,928337.5,9002,yes,SM,B,23.bmp,-120,120,338788,332764,340807,334772,928872.0,922846.0,930891.0,924856.0,58
2,0,1,0,0,44,test,1,1,m,Fri Jan 17 2025 14:06:57 GMT-0500 (Eastern Standard Time),947413.7000007629,I,m,1563,59,3,25.bmp,-120,-120,26.bmp,120,-120,27.bmp,-120,120,28.bmp,120,120,9611.10000038147,937802.6000003815,9002,yes,SM,B,28.bmp,120,-120,338788,332764,340807,334772,938339.0,932311.0,940357.0,934324.0,59
1,1,0,0,0,44,test,1,0,z,Fri Jan 17 2025 14:06:57 GMT-0500 (Eastern Standard Time),957480.6000003815,I,None,2013,60,3,29.bmp,-120,-120,30.bmp,120,-120,31.bmp,-120,120,32.bmp,120,120,10062.29999923706,947418.3000011444,9002,yes,SM,B,29.bmp,-120,-120,338788,332764,340807,334772,947956.0,941927.0,949974.0,943939.0,60
2,0,1,0,0,44,test,1,0,z,Fri Jan 17 2025 14:06:57 GMT-0500 (Eastern Standard Time),967413.4000015259,I,m,1878,61,3,33.bmp,-120,-120,34.bmp,120,-120,35.bmp,-120,120,36.bmp,120,120,9926.70000076294,957486.7000007629,9002,yes,SM,B,34.bmp,120,-120,338788,332764,340807,334772,958022.0,951995.0,960041.0,954006.0,61
4,0,0,0,1,45,test,1,1,z,Fri Jan 17 2025 14:06:57 GMT-0500 (Eastern Standard Time),976714.0,I,z,1242,62,3,41.bmp,-120,-120,42.bmp,120,-120,43.bmp,-120,120,44.bmp,120,120,9297.29999923706,967416.7000007629,9002,yes,SM,B,44.bmp,120,120,338788,332764,340807,334772,967956.0,961925.0,969975.0,963941.0,62
1,1,0,0,0,45,test,1,0,m,Fri Jan 17 2025 14:06:57 GMT-0500 (Eastern Standard Time),986780.6000003815,I,None,2013,63,3,45.bmp,-120,-120,46.bmp,120,-120,47.bmp,-120,120,48.bmp,120,120,10058.0,976722.6000003815,9002,yes,SM,B,45.bmp,-120,120,338788,332764,340807,334772,977256.0,971231.0,979275.0,973241.0,63
2,0,1,0,0,45,test,1,0,z,Fri Jan 17 2025 14:06:57 GMT-0500 (Eastern Standard Time),996480.4000015259,I,m,1635,64,3,49.bmp,-120,-120,50.bmp,120,-120,12.bmp,-120,120,1.bmp,120,120,9692.10000038147,986788.3000011444,9002,yes,SM,B,50.bmp,120,-120,338788,332764,340807,334772,987323.0,981297.0,989341.0,983307.0,64
4,0,0,0,1,46,test,1,1,m,Fri Jan 17 2025 14:06:57 GMT-0500 (Eastern Standard Time),1006263.8000011444,I,m,1727,65,3,2.bmp,-120,-120,3.bmp,120,-120,4.bmp,-120,120,5.bmp,120,120,9778.30000114441,996485.5,9002,yes,SM,B,4.bmp,120,120,338788,332764,340807,334772,997022.0,990994.0,999041.0,993007.0,65
3,0,0,1,0,47,test,1,1,m,Fri Jan 17 2025 14:06:57 GMT-0500 (Eastern Standard Time),1016230.8000011444,I,m,1911,66,3,6.bmp,-120,-120,7.bmp,120,-120,8.bmp,-120,120,9.bmp,120,120,9962.60000038147,1006268.2000007629,9002,yes,SM,B,9.bmp,-120,120,338788,332764,340807,334772,1006806.0,1000776.0,1008825.0,1002791.0,66
2,0,1,0,0,48,test,1,1,m,Fri Jan 17 2025 14:06:57 GMT-0500 (Eastern Standard Time),1026130.8000011444,I,m,1816,67,3,37.bmp,-120,-120,38.bmp,120,-120,39.bmp,-120,120,40.bmp,120,120,9882.60000038147,1016248.2000007629,9002,yes,SM,B,39.bmp,120,-120,338788,332764,340807,334772,1016789.0,1010757.0,1018808.0,1012772.0,67
3,0,0,1,0,49,test,1,1,z,Fri Jan 17 2025 14:06:57 GMT-0500 (Eastern Standard Time),1035847.3000011444,I,z,1662,68,3,10.bmp,-120,-120,11.bmp,120,-120,12.bmp,-120,120,13.bmp,120,120,9709.10000038147,1026138.2000007629,9002,yes,SM,B,12.bmp,-120,120,338788,332764,340807,334772,1026672.0,1020646.0,1028690.0,1022656.0,68
1,1,0,0,0,50,test,1,1,m,Fri Jan 17 2025 14:06:57 GMT-0500 (Eastern Standard Time),1045880.8000011444,I,m,1977,69,3,14.bmp,-120,-120,15.bmp,120,-120,16.bmp,-120,120,17.bmp,120,120,10026.30000114441,1035854.5,9002,yes,SM,B,15.bmp,-120,-120,338788,332764,340807,334772,1036389.0,1030363.0,1038408.0,1032373.0,69
2,0,1,0,0,51,test,1,1,m,Fri Jan 17 2025 14:06:57 GMT-0500 (Eastern Standard Time),1055880.5,I,m,1943,70,3,18.bmp,-120,-120,19.bmp,120,-120,20.bmp,-120,120,21.bmp,120,120,9991.89999961853,1045888.6000003815,9002,yes,SM,B,20.bmp,120,-120,338788,332764,340807,334772,1046422.0,1040397.0,1048441.0,1042407.0,70
4,0,0,0,1,52,test,1,1,z,Fri Jan 17 2025 14:06:57 GMT-0500 (Eastern Standard Time),1065030.6000003815,I,z,1096,71,3,22.bmp,-120,-120,23.bmp,120,-120,24.bmp,-120,120,25.bmp,120,120,9146.60000038147,1055884.0,9002,yes,SM,B,25.bmp,120,120,338788,332764,340807,334772,1056422.0,1050392.0,1058441.0,1052408.0,71
1,1,0,0,0,53,test,1,1,z,Fri Jan 17 2025 14:06:57 GMT-0500 (Eastern Standard Time),1074780.9000015259,I,z,1689,72,3,26.bmp,-120,-120,27.bmp,120,-120,28.bmp,-120,120,29.bmp,120,120,9743.0,1065037.9000015259,9002,yes,SM,B,26.bmp,-120,-120,338788,332764,340807,334772,1065572.0,1059546.0,1067591.0,1061558.0,72
2,0,1,0,0,54,test,1,1,z,Fri Jan 17 2025 14:06:57 GMT-0500 (Eastern Standard Time),1083813.8000011444,I,z,978,73,3,30.bmp,-120,-120,31.bmp,120,-120,32.bmp,-120,120,33.bmp,120,120,9023.0,1074790.8000011444,9002,yes,SM,B,31.bmp,120,-120,338788,332764,340807,334772,1075322.0,1069299.0,1077342.0,1071308.0,73
4,0,0,0,1,54,test,1,0,m,Fri Jan 17 2025 14:06:57 GMT-0500 (Eastern Standard Time),1093880.9000015259,I,None,2014,74,3,34.bmp,-120,-120,35.bmp,120,-120,36.bmp,-120,120,37.bmp,120,120,10059.900001525879,1083821.0,9002,yes,SM,B,36.bmp,120,120,338788,332764,340807,334772,1084356.0,1078329.0,1086375.0,1080340.0,74
2,0,1,0,0,54,test,1,0,m,Fri Jan 17 2025 14:06:57 GMT-0500 (Eastern Standard Time),1103947.3000011444,I,None,2014,75,3,38.bmp,-120,-120,39.bmp,120,-120,40.bmp,-120,120,41.bmp,120,120,10058.20000076294,1093889.1000003815,9002,yes,SM,B,41.bmp,120,-120,338788,332764,340807,334772,1094422.0,1088397.0,1096441.0,1090408.0,75
1,1,0,0,0,55,test,1,1,z,Fri Jan 17 2025 14:06:57 GMT-0500 (Eastern Standard Time),1112814.0,I,z,804,76,3,42.bmp,-120,-120,43.bmp,120,-120,44.bmp,-120,120,45.bmp,120,120,8862.5,1103951.5,9002,yes,SM,B,42.bmp,-120,-120,338788,332764,340807,334772,1104489.0,1098460.0,1106508.0,1100474.0,76
3,0,0,1,0,56,test,1,1,z,Fri Jan 17 2025 14:06:57 GMT-0500 (Eastern Standard Time),1122130.6000003815,I,z,1249,77,3,50.bmp,-120,-120,11.bmp,120,-120,1.bmp,-120,120,2.bmp,120,120,9309.89999961853,1112820.700000763,9002,yes,SM,B,1.bmp,-120,120,338788,332764,340807,334772,1113356.0,1107329.0,1115375.0,1109341.0,77
1,1,0,0,0,57,test,1,1,m,Fri Jan 17 2025 14:06:57 GMT-0500 (Eastern Standard Time),1131997.5,I,m,1805,78,3,46.bmp,-120,-120,47.bmp,120,-120,48.bmp,-120,120,49.bmp,120,120,9860.0,1122137.5,9002,yes,SM,B,47.bmp,-120,-120,338788,332764,340807,334772,1122672.0,1116646.0,1124692.0,1118658.0,78
4,0,0,0,1,58,test,1,1,m,Fri Jan 17 2025 14:06:57 GMT-0500 (Eastern Standard Time),1141864.1000003815,I,m,1811,79,3,7.bmp,-120,-120,8.bmp,120,-120,9.bmp,-120,120,10.bmp,120,120,9859.69999885559,1132004.4000015259,9002,yes,SM,B,7.bmp,120,120,338788,332764,340807,334772,1132539.0,1126513.0,1134558.0,1128524.0,79
3,0,0,1,0,59,test,1,1,m,Fri Jan 17 2025 14:06:57 GMT-0500 (Eastern Standard Time),1151264.3000011444,I,m,1337,80,3,3.bmp,-120,-120,4.bmp,120,-120,5.bmp,-120,120,6.bmp,120,120,9391.39999961853,1141872.9000015259,9002,yes,SM,B,6.bmp,-120,120,338788,332764,340807,334772,1142405.0,1136381.0,1144424.0,1138390.0,80
